Date and Time:                Sun Jan 29 15:24:23.000 2023
Software Version:             4.31.30023.0
Temperature (C):              -40
Model:                        DU940P_BU2
Data Type:                    Counts
Acquisition Mode:             Single Scan
Trigger Mode:                 Internal
Exposure Time (secs):         0.3
Readout Mode:                 Full Vertical Binning
Horizontal binning:           1
Extended Dynamic Range:       off
Horizontally flipped:         false
Vertical Shift Speed (usecs): 14.51
Pixel Readout Rate (MHz):     3
Baseline Clamp:               ON
Clock Amplitude:              Normal
Output Amplifier:             High Capacity
Serial Number:                23634
Pre-Amplifier Gain:           1.000000
Spurious Noise Filter Mode:   No Filter
Photon counted:               false
Data Averaging Filter Mode:   No Filter
SR500i:
Serial Number:                
Wavelength (nm):              427
Grating Groove Density (l/mm):1199.47
Grating Blaze:                500
Output Flipper Port:          Direct
Accessory Output Port 1:      Off
Accessory Output Port 2:      Off
Accessory Output Port 3:      Off
Accessory Input Port:         On



406.20703	36120
406.22748	34882
406.24792	34883
406.26837	34934
406.28882	34956
406.30927	35228
406.32974	35068
406.35019	35086
406.37064	34978
406.39108	35009
406.41153	34829
406.43198	34881
406.45242	34763
406.47287	34764
406.49332	34885
406.51379	34945
406.53424	34831
406.55469	35003
406.57513	34886
406.59558	34816
406.61603	35007
406.63647	34936
406.65692	34882
406.67737	35104
406.69781	34860
406.71826	34762
406.73871	34870
406.75916	34546
406.7796	34873
406.80005	34830
406.8205	34841
406.84094	35055
406.86139	35051
406.88184	35059
406.90228	34897
406.9227	34874
406.94315	35086
406.96359	34994
406.98404	34986
407.00449	35385
407.02493	35091
407.04538	35057
407.06583	35115
407.08627	35000
407.10669	35023
407.12714	35211
407.14758	34933
407.16803	35126
407.18848	35145
407.20892	34933
407.22934	35117
407.24979	35000
407.27023	34908
407.29068	35322
407.31113	35241
407.33154	35134
407.35199	35084
407.37244	34844
407.39288	35121
407.4133	35373
407.43375	35197
407.45419	35312
407.47461	35170
407.49506	35282
407.5155	35340
407.53595	35143
407.55637	35254
407.57681	35347
407.59726	34930
407.61768	35051
407.63812	35078
407.65857	34878
407.67899	34935
407.69943	34766
407.71985	34794
407.7403	34926
407.76074	34778
407.78116	34803
407.80161	34851
407.82202	34596
407.84247	34996
407.86292	34683
407.88333	34926
407.90378	35136
407.92419	35184
407.94464	34996
407.96506	35230
407.9855	35001
408.00592	34777
408.02637	34930
408.04678	34936
408.06723	34931
408.08765	34908
408.10809	34709
408.12851	34901
408.14896	34810
408.16937	34707
408.18982	34941
408.21024	34868
408.23065	34859
408.2511	34994
408.27151	34718
408.29196	34982
408.31238	34897
408.33282	34959
408.35324	35216
408.37366	35222
408.3941	35187
408.41452	35337
408.43494	35114
408.45538	35227
408.4758	35333
408.49622	35144
408.51666	35369
408.53708	35285
408.5575	35202
408.57794	35443
408.59836	35141
408.61877	35191
408.63919	35225
408.65964	34919
408.68005	35040
408.70047	35188
408.72089	34966
408.74133	35117
408.76175	35300
408.78217	34897
408.80258	35090
408.82303	34993
408.84344	35247
408.86386	35367
408.88428	35219
408.90469	35263
408.92511	35351
408.94556	35309
408.96597	35327
408.98639	35368
409.00681	35199
409.02722	35414
409.04764	35439
409.06805	35103
409.08847	35263
409.10892	35231
409.12933	35377
409.14975	35363
409.17017	35070
409.19058	35486
409.211	35416
409.23141	35153
409.25183	35235
409.27225	35260
409.29266	35347
409.31308	35460
409.3335	35404
409.35391	35326
409.37433	35573
409.39474	35391
409.41516	35382
409.43558	35419
409.45599	35283
409.47641	35345
409.49683	35568
409.51724	35182
409.53766	35504
409.55807	35221
409.57846	35595
409.59888	35605
409.61929	35496
409.63971	35625
409.66013	35674
409.68054	35525
409.70096	35353
409.72137	35733
409.74176	35446
409.76218	35881
409.78259	35971
409.80301	35743
409.82343	36133
409.84384	35907
409.86423	35727
409.88464	35985
409.90506	35947
409.92548	35796
409.94589	36113
409.96628	35732
409.98669	35886
410.00711	35906
410.02753	35639
410.04791	35834
410.06833	35674
410.08875	35670
410.10913	35827
410.12955	35879
410.14996	35920
410.17035	36124
410.19077	35820
410.21118	35839
410.23157	36181
410.25198	35889
410.2724	35972
410.29279	36194
410.3132	35980
410.33362	36250
410.354	36367
410.37442	35887
410.39481	36374
410.41522	36015
410.43564	35955
410.45602	36053
410.47644	36060
410.49683	36136
410.51724	36332
410.53763	35977
410.55804	36411
410.57843	36250
410.59885	35953
410.61923	36042
410.63965	35872
410.66003	35711
410.68045	35962
410.70084	35954
410.72125	35817
410.74164	36258
410.76205	35914
410.78244	35930
410.80286	36097
410.82324	35779
410.84366	36009
410.86404	36157
410.88443	35966
410.90485	36180
410.92523	36156
410.94565	35851
410.96603	36303
410.98642	35987
411.00684	36176
411.02722	36544
411.04761	36000
411.06802	36418
411.08841	36257
411.1088	36091
411.12921	36300
411.1496	36453
411.16998	36200
411.19037	36252
411.21078	36229
411.23117	36339
411.25156	36623
411.27197	36327
411.29236	36322
411.31274	36714
411.33313	36435
411.35352	36414
411.37393	36544
411.39432	36265
411.4147	36751
411.43509	36566
411.45547	36323
411.47589	36768
411.49628	36379
411.51666	36363
411.53705	36700
411.55743	36723
411.57782	36488
411.59821	36766
411.61862	36434
411.63901	36551
411.65939	36902
411.67978	36376
411.70016	36584
411.72055	36602
411.74094	36301
411.76132	36535
411.78171	36579
411.80209	36164
411.82248	36751
411.84286	36282
411.86325	36416
411.88364	36714
411.90402	36493
411.92441	36432
411.94479	36525
411.96518	36144
411.98557	36289
412.00595	36397
412.02634	36150
412.04672	36415
412.06711	36409
412.08749	36070
412.10788	36480
412.12827	36430
412.14865	36370
412.16904	36650
412.18942	36337
412.20978	36225
412.23016	36653
412.25055	36213
412.27094	36545
412.29132	36713
412.31171	36400
412.33209	36485
412.35245	36451
412.37283	36233
412.39322	36689
412.4136	36463
412.43399	36568
412.45435	36516
412.47473	36608
412.49512	36501
412.5155	37059
412.53589	36605
412.55624	36756
412.57663	36742
412.59702	36565
412.61737	36644
412.63776	36955
412.65814	36645
412.67853	36804
412.69888	36866
412.71927	36597
412.73965	36929
412.76001	36952
412.7804	36742
412.80078	37051
412.82114	36929
412.84152	36661
412.86188	37173
412.88226	36562
412.90265	36689
412.923	36757
412.94339	36506
412.96375	36475
412.98413	36855
413.00452	36612
413.02487	36753
413.04526	37074
413.06561	36714
413.086	36961
413.10635	36939
413.12674	36635
413.14709	37161
413.16748	37050
413.18784	36965
413.20822	37033
413.22858	36875
413.24896	36838
413.26932	37021
413.2897	36734
413.31006	36799
413.33044	36868
413.3508	36561
413.37115	36794
413.39154	36913
413.4119	36658
413.43228	37007
413.45264	37253
413.47299	36838
413.49338	37358
413.51373	36884
413.53412	37082
413.55447	37315
413.57483	36952
413.59521	37141
413.61557	37317
413.63593	36939
413.65628	36982
413.67667	37088
413.69702	36891
413.71738	37032
413.73776	37294
413.75812	37023
413.77847	37397
413.79883	37214
413.81921	36837
413.83957	37245
413.85992	36887
413.88028	36989
413.90067	37400
413.92102	37165
413.94138	37178
413.96173	37351
413.98209	37098
414.00244	37038
414.02283	37570
414.04318	37144
414.06354	37381
414.08389	37479
414.10425	37101
414.1246	37197
414.14496	37377
414.16531	37102
414.1857	37212
414.20605	37006
414.22641	36977
414.24677	37144
414.26712	37094
414.28748	37110
414.30783	37315
414.32819	37209
414.34854	37163
414.3689	37459
414.38925	37205
414.40961	37371
414.42996	37518
414.45032	37293
414.47067	37468
414.49103	37608
414.51138	37384
414.53174	37382
414.55209	37397
414.57245	37286
414.5928	37250
414.61316	37371
414.63351	37123
414.65384	37558
414.67419	37452
414.69455	37410
414.7149	37579
414.73526	37387
414.75562	37353
414.77597	37613
414.79633	37345
414.81665	37312
414.83701	37754
414.85736	37300
414.87772	37615
414.89807	37781
414.9184	37273
414.93875	37514
414.95911	37544
414.97946	37275
414.99982	37650
415.02014	37588
415.0405	37323
415.06085	37757
415.08121	37491
415.10153	37427
415.12189	37910
415.14224	37494
415.16257	37610
415.18292	37987
415.20328	37593
415.2236	37723
415.24396	37885
415.26431	37547
415.28464	37766
415.30499	38050
415.32535	37903
415.34567	37942
415.36603	38077
415.38638	37822
415.40671	38190
415.42706	38121
415.44739	38004
415.46774	38095
415.48807	38201
415.50842	37786
415.52878	38163
415.5491	37990
415.56946	37802
415.58978	38070
415.61014	37902
415.63046	37843
415.65082	38104
415.67114	38055
415.6915	38019
415.71182	38295
415.73218	37845
415.7525	37940
415.77283	38355
415.79318	38011
415.81351	38213
415.83386	38278
415.85419	38032
415.87454	38119
415.89487	38177
415.91519	37987
415.93555	38154
415.95587	38028
415.97623	37874
415.99655	38151
416.01688	38224
416.03723	37939
416.05756	38262
416.07788	38035
416.09824	37945
416.11856	38385
416.13889	37966
416.15921	37753
416.17957	38131
416.19989	37673
416.22021	37726
416.24054	38012
416.26089	37731
416.28122	38044
416.30154	38279
416.32187	37724
416.34222	37965
416.36255	38002
416.38287	37773
416.4032	38080
416.42352	38100
416.44388	37862
416.4642	38382
416.48453	38046
416.50485	37877
416.52518	38232
416.5455	38203
416.56583	37918
416.58618	38387
416.60651	37978
416.62683	37986
416.64716	38256
416.66748	37947
416.68781	38067
416.70813	38115
416.72845	37829
416.74878	38263
416.7691	38352
416.78943	38145
416.80975	38543
416.83008	38448
416.8504	38129
416.87073	38455
416.89105	38489
416.91138	38280
416.9317	38670
416.95203	38497
416.97235	38255
416.99268	38890
417.013	38454
417.03333	38340
417.05365	38558
417.07397	38501
417.0943	38301
417.11462	38713
417.13495	38366
417.15524	38167
417.17557	38510
417.19589	38340
417.21622	38420
417.23654	38588
417.25687	38297
417.27716	38446
417.29749	38558
417.31781	38207
417.33813	38472
417.35846	38556
417.37878	38342
417.39908	38349
417.4194	38761
417.43973	38312
417.46005	38584
417.48035	38546
417.50067	38164
417.521	38269
417.54129	38412
417.56161	38021
417.58194	38422
417.60226	38094
417.62256	37949
417.64288	38213
417.66321	38035
417.6835	37958
417.70383	38371
417.72415	38101
417.74445	37838
417.76477	38436
417.78506	38129
417.80539	38205
417.82571	38648
417.84601	38364
417.86633	38167
417.88663	38540
417.90695	38301
417.92728	38397
417.94757	38510
417.9679	38369
417.98819	38411
418.00851	38685
418.02881	38321
418.04913	38399
418.06943	38553
418.08975	38109
418.11005	38248
418.13037	38665
418.15067	38206
418.17099	38799
418.19128	38566
418.21158	38237
418.2319	38591
418.2522	38623
418.27252	38328
418.29282	38751
418.31314	38829
418.33344	38487
418.35373	38845
418.37405	38540
418.39435	38376
418.41464	38651
418.43497	38412
418.45526	38301
418.47556	38740
418.49588	38439
418.51617	38171
418.53647	38664
418.55679	38478
418.57709	38453
418.59738	38661
418.61768	38522
418.638	38763
418.65829	38924
418.67859	38407
418.69888	38605
418.71921	38870
418.7395	38632
418.7598	38821
418.78009	38926
418.80042	38670
418.82071	38916
418.841	39081
418.8613	38455
418.88159	38998
418.90189	38896
418.92218	38483
418.9425	38951
418.9628	39281
418.98309	38728
419.00339	39222
419.02368	39083
419.04398	38932
419.06427	39228
419.08456	39156
419.10486	38752
419.12515	39249
419.14545	39161
419.16577	39036
419.18607	39326
419.20636	39051
419.22665	39238
419.24695	39440
419.26724	39397
419.28754	39312
419.30783	39732
419.32813	39401
419.34839	39118
419.36868	39618
419.38898	39268
419.40927	39598
419.42957	39781
419.44986	39715
419.47015	39846
419.49045	40094
419.51074	39883
419.53104	39899
419.55133	40237
419.57159	39716
419.59189	39879
419.61218	40067
419.63248	39770
419.65277	39934
419.67307	39956
419.69333	39707
419.71362	39818
419.73392	39705
419.75421	39312
419.77451	39615
419.79477	39736
419.81506	39557
419.83536	40032
419.85565	39847
419.87592	39458
419.89621	39989
419.9165	39970
419.9368	39756
419.95706	40027
419.97736	39976
419.99765	39928
420.01791	40073
420.03821	40127
420.0585	39904
420.07877	40132
420.09906	39990
420.11935	39771
420.13962	40065
420.15991	39948
420.18018	39755
420.20047	40056
420.22076	39906
420.24103	39794
420.26132	40093
420.28159	39908
420.30188	39455
420.32214	40072
420.34244	39667
420.36273	39672
420.383	39810
420.40329	39919
420.42355	39615
420.44385	39964
420.46411	39824
420.48441	39676
420.50467	40171
420.52493	39626
420.54523	39790
420.56549	40092
420.58578	39823
420.60605	39651
420.62634	39918
420.64661	39961
420.66687	39890
420.68716	40279
420.70743	39851
420.72772	39925
420.74799	39980
420.76825	39896
420.78854	39962
420.80881	40129
420.82907	39955
420.84937	40210
420.86963	40302
420.88989	40094
420.91019	40114
420.93045	40326
420.95071	40055
420.97098	40265
420.99127	40400
421.01154	40178
421.0318	40288
421.05206	40439
421.07236	40231
421.09262	40307
421.11288	40346
421.13315	40030
421.15341	40359
421.17371	40348
421.19397	40146
421.21423	40630
421.2345	40566
421.25476	40005
421.27502	40366
421.29532	40442
421.31558	40124
421.33585	40644
421.35611	40271
421.37637	40245
421.39664	40417
421.4169	40311
421.43716	40116
421.45743	40430
421.47769	40255
421.49796	40109
421.51822	40333
421.53848	40270
421.55875	40225
421.57901	40280
421.59927	40287
421.61954	40090
421.6398	40041
421.66006	40369
421.68033	39921
421.70059	40058
421.72086	39956
421.74112	39735
421.76138	40243
421.78165	40085
421.80191	39982
421.82217	40400
421.84244	39871
421.8627	39712
421.88297	40003
421.9032	40058
421.92346	39887
421.94373	40105
421.96399	40258
421.98425	39987
422.00452	40392
422.02475	40237
422.04501	39950
422.06528	40480
422.08554	40038
422.1058	40005
422.12604	40126
422.1463	40025
422.16656	39908
422.18683	40148
422.20706	39980
422.22733	40008
422.24759	40151
422.26785	40012
422.28809	40096
422.30835	40503
422.32861	40097
422.34885	40176
422.36911	40296
422.38937	40084
422.40961	40255
422.42987	40358
422.45013	40222
422.47037	40218
422.49063	40420
422.51086	40446
422.53113	40300
422.55139	40283
422.57162	40051
422.59189	40086
422.61212	40350
422.63239	40283
422.65262	40028
422.67288	40486
422.69312	40129
422.71338	40321
422.73361	40525
422.75388	40127
422.77411	40143
422.79437	40508
422.81461	40006
422.83487	40037
422.8551	40481
422.87537	40078
422.8956	40250
422.91586	40531
422.9361	40326
422.95633	40377
422.97659	40556
422.99683	40091
423.01709	40260
423.03732	40187
423.05756	40216
423.07782	40088
423.09805	40315
423.11829	39947
423.13855	39912
423.15878	40112
423.17902	39813
423.19928	39976
423.21951	40161
423.23975	39827
423.26001	39732
423.28024	39965
423.30048	40031
423.32071	39849
423.34097	40567
423.36121	40154
423.38144	40050
423.40167	40149
423.42191	40001
423.44217	39930
423.4624	40124
423.48264	39976
423.50287	40109
423.5231	40251
423.54333	39986
423.5636	39954
423.58383	40129
423.60406	39758
423.6243	39942
423.64453	40388
423.66476	40138
423.685	40191
423.70523	40213
423.72546	40104
423.74573	40033
423.76596	40403
423.78619	40257
423.80643	40354
423.82666	40681
423.84689	40542
423.86713	40181
423.88736	40678
423.90759	40379
423.92783	40525
423.94806	40609
423.96829	40405
423.98853	40339
424.00876	40653
424.02896	40183
424.04919	40442
424.06943	40646
424.08966	40365
424.10989	40449
424.13013	40475
424.15036	40485
424.17059	40354
424.19083	40640
424.21106	40288
424.23126	40341
424.2515	40499
424.27173	40506
424.29196	40576
424.31219	40855
424.3324	40603
424.35263	40329
424.37286	40753
424.3931	40467
424.41333	40483
424.43353	40562
424.45377	40463
424.474	40436
424.49423	40696
424.51443	40356
424.53467	40474
424.5549	40736
424.5751	40273
424.59534	40433
424.61557	40585
424.6358	40261
424.65601	40368
424.67624	40696
424.69644	40331
424.71667	40335
424.73691	40547
424.75711	40403
424.77734	40262
424.79758	40687
424.81778	40420
424.83801	40344
424.85822	40544
424.87845	40345
424.89865	40380
424.91888	40631
424.93909	40578
424.95932	40704
424.97955	40668
424.99976	40629
425.01999	40542
425.04019	40965
425.06042	40996
425.08063	40595
425.10083	40872
425.12106	40823
425.14127	40704
425.1615	40889
425.1817	40906
425.20193	40616
425.22214	40942
425.24234	40701
425.26257	40580
425.28278	40651
425.30301	40847
425.32321	40671
425.34341	41015
425.36365	40780
425.38385	40715
425.40405	40815
425.42429	40936
425.44449	40835
425.46469	40981
425.48492	40960
425.50513	40700
425.52533	41026
425.54553	41170
425.56577	40911
425.58597	40824
425.60617	41084
425.62637	40676
425.64661	40841
425.66681	41033
425.68701	40615
425.70721	41109
425.72742	40900
425.74765	40707
425.76785	40685
425.78806	40960
425.80826	40354
425.82846	40695
425.84866	40791
425.86887	40491
425.8891	40691
425.9093	40879
425.9295	40530
425.94971	40772
425.96991	40914
425.99011	40516
426.01031	40592
426.03052	40823
426.05072	40652
426.07092	40528
426.09113	40887
426.11133	40636
426.13153	40627
426.15173	40897
426.17194	40746
426.19214	40942
426.21234	41147
426.23254	40824
426.25275	40790
426.27295	40800
426.29315	40759
426.31335	40761
426.33356	41115
426.35376	40901
426.37396	40924
426.39413	41139
426.41434	41070
426.43454	40974
426.45474	41054
426.47495	41228
426.49515	40875
426.51535	41060
426.53552	41019
426.55573	40828
426.57593	41057
426.59613	41051
426.61633	40799
426.63651	41056
426.65671	40929
426.67691	40859
426.69711	40881
426.71729	41270
426.73749	40721
426.75769	41051
426.77789	41142
426.79807	40943
426.81827	41110
426.83847	41222
426.85864	40980
426.87885	41107
426.89905	41222
426.91922	40886
426.93942	41021
426.95963	41300
426.9798	41220
427	40466
427.02017	40542
427.04037	41625
427.06058	41203
427.08075	41361
427.10095	41150
427.12112	41332
427.14133	41391
427.1615	41147
427.1817	41150
427.20187	41312
427.22208	40998
427.24225	41169
427.26245	41258
427.28262	41333
427.30283	41133
427.323	41337
427.3432	41218
427.36337	41157
427.38358	41163
427.40375	41230
427.42395	41342
427.44412	41482
427.46429	41527
427.4845	41408
427.50467	41446
427.52484	41581
427.54504	41385
427.56522	41611
427.58542	41449
427.60559	41273
427.62576	41687
427.64597	41194
427.66614	41240
427.68631	41420
427.70648	41360
427.72668	41164
427.74686	41635
427.76703	41363
427.78723	41646
427.8074	41584
427.82758	41340
427.84775	41721
427.86792	41621
427.88812	41651
427.90829	41581
427.92847	41693
427.94864	41880
427.96881	41680
427.98901	41891
428.00919	41687
428.02936	41684
428.04953	41701
428.0697	41483
428.08987	41513
428.11005	41805
428.13022	41631
428.15042	41645
428.17059	41603
428.19077	41736
428.21094	41759
428.23111	41534
428.25128	41875
428.27145	41605
428.29163	41352
428.3118	41567
428.33197	41462
428.35214	41449
428.37231	41736
428.39249	41739
428.41266	41546
428.43283	41702
428.453	41605
428.47318	41526
428.49335	41784
428.51352	41506
428.53366	41303
428.55383	41336
428.57401	41301
428.59418	41234
428.61435	41088
428.63452	41013
428.65469	41440
428.67487	41101
428.69501	41144
428.71518	41302
428.73535	41087
428.75552	41361
428.7757	41147
428.79584	41205
428.81601	41886
428.83618	41282
428.85635	41444
428.87653	41556
428.89667	41456
428.91684	41469
428.93701	41518
428.95718	41514
428.97733	41626
428.9975	41704
429.01767	41496
429.03781	41492
429.05798	41461
429.07816	41366
429.0983	41509
429.11847	41528
429.13864	41828
429.15878	41512
429.17896	41767
429.1991	41664
429.21927	41588
429.23944	41422
429.25958	41546
429.27975	41744
429.2999	41917
429.32007	42154
429.34021	41906
429.36038	42063
429.38052	41888
429.4007	41890
429.42084	41819
429.44101	42081
429.46115	41974
429.48132	41872
429.50146	42110
429.52164	41785
429.54178	41937
429.56195	41999
429.58209	41814
429.60226	41723
429.62241	41941
429.64255	41917
429.66272	41643
429.68286	41902
429.70303	41960
429.72318	41684
429.74332	42165
429.76349	41833
429.78363	42224
429.80377	41885
429.82394	41968
429.84409	42246
429.86423	41911
429.8844	42192
429.90454	42071
429.92468	42007
429.94482	42232
429.965	42094
429.98514	42282
430.00528	41951
430.02542	42109
430.04559	42361
430.06573	41959
430.08588	42100
430.10602	42081
430.12616	42257
430.1463	42116
430.16647	42133
430.18661	41994
430.20676	42093
430.2269	41789
430.24704	42022
430.26718	42033
430.28732	42093
430.30746	42126
430.32764	42150
430.34778	42210
430.36792	42064
430.38806	42265
430.4082	41937
430.42834	42119
430.44849	42340
430.46863	42048
430.48877	42269
430.50891	42265
430.52905	42292
430.54919	42297
430.56934	42261
430.58948	42159
430.60962	42466
430.62976	42076
430.6499	42099
430.67004	42274
430.69019	42233
430.7103	42446
430.73044	41990
430.75058	42305
430.77072	42114
430.79086	42053
430.811	42197
430.83115	42490
430.85126	42382
430.8714	41988
430.89154	42469
430.91168	42252
430.93182	42342
430.95197	42408
430.97208	42498
430.99222	42280
431.01236	42544
431.0325	42312
431.05261	42504
431.07275	42418
431.0929	42241
431.11304	42264
431.13315	42327
431.15329	42380
431.17343	42279
431.19354	42140
431.21368	42238
431.23383	42315
431.25394	42240
431.27408	42222
431.29422	42109
431.31433	42160
431.33447	42157
431.35458	42056
431.37473	42140
431.39487	42003
431.41498	42067
431.43512	42215
431.45523	42146
431.47537	42175
431.49548	41967
431.51563	42344
431.53574	41962
431.55588	42107
431.57599	42354
431.59613	42171
431.61624	42206
431.63638	42056
431.65649	42413
431.67664	42090
431.69675	42664
431.71689	42134
431.737	42211
431.75714	42104
431.77725	42409
431.79736	42488
431.8175	42205
431.83762	42641
431.85773	42358
431.87787	42675
431.89798	42486
431.91812	42463
431.93823	42581
431.95834	42629
431.97849	42741
431.9986	42600
432.01871	42451
432.03882	42829
432.05896	42665
432.07907	42635
432.09918	42678
432.11929	42450
432.13943	42498
432.15955	42789
432.17966	42494
432.19977	42684
432.21988	42647
432.24002	42356
432.26013	42579
432.28024	42648
432.30035	42522
432.32047	42748
432.34058	42942
432.36072	42317
432.38083	42666
432.40094	42515
432.42105	42476
432.44116	42647
432.46127	42432
432.48138	42507
432.5015	42546
432.52161	42599
432.54172	42911
432.56183	42544
432.58194	42653
432.60205	42640
432.62216	42726
432.64227	42416
432.66238	42609
432.6825	42401
432.70261	42603
432.72272	42350
432.74283	42595
432.76294	42586
432.78305	42780
432.80316	42377
432.82327	42705
432.84338	42620
432.86349	42728
432.88361	42763
432.90372	42787
432.9238	42947
432.94391	43032
432.96402	42802
432.98413	42874
433.00424	42846
433.02435	43053
433.04443	42819
433.06454	42938
433.08466	42724
433.10477	42835
433.12485	42807
433.14496	43045
433.16507	42639
433.18518	42699
433.20526	42877
433.22537	42871
433.24548	42821
433.26559	43223
433.28568	43189
433.30579	43013
433.3259	43144
433.34598	43084
433.36609	43311
433.3862	43108
433.40628	43253
433.42639	43340
433.44647	43190
433.46658	43224
433.48669	43222
433.50677	43050
433.52689	43269
433.54697	43351
433.56708	42975
433.58716	43214
433.60727	43291
433.62738	43135
433.64746	43236
433.66757	42985
433.68765	43018
433.70776	43334
433.72784	43225
433.74796	43239
433.76804	42976
433.78812	43124
433.80823	43006
433.82831	43337
433.84842	43239
433.8685	43020
433.88861	43493
433.90869	43439
433.92877	43353
433.94888	43148
433.96896	43268
433.98904	43050
434.00916	43296
434.02924	43006
434.04932	43178
434.06943	42866
434.08951	43012
434.10959	43201
434.1297	42984
434.14978	42958
434.16986	43072
434.18994	43106
434.21005	42998
434.23013	43115
434.25021	43384
434.27029	43028
434.29041	43237
434.31049	43603
434.33057	43218
434.35065	43423
434.37073	43006
434.39081	43758
434.41092	43314
434.431	43425
434.45108	43289
434.47116	43339
434.49124	43318
434.51132	43335
434.5314	43175
434.55148	43519
434.57156	43357
434.59167	43355
434.61176	43376
434.63184	43414
434.65192	43234
434.672	43442
434.69208	43565
434.71216	43443
434.73224	43519
434.75232	43623
434.7724	43649
434.79248	43896
434.81256	43619
434.83264	43736
434.85269	43793
434.87277	43791
434.89285	43685
434.91293	43897
434.93301	43667
434.95309	43720
434.97318	43648
434.99326	43999
435.01334	43657
435.03339	43685
435.05347	43795
435.07355	43660
435.09363	43738
435.11371	43668
435.13379	43869
435.15384	43896
435.17392	43807
435.194	44032
435.21408	43996
435.23413	43918
435.25421	44049
435.27429	43985
435.29437	43916
435.31442	43892
435.3345	44009
435.35458	44036
435.37463	43967
435.39471	44117
435.41479	43966
435.43484	44049
435.45493	44034
435.47501	44105
435.49506	44013
435.51514	44035
435.53522	44094
435.55527	43939
435.57535	43938
435.5954	43954
435.61548	43702
435.63553	43939
435.65561	43765
435.67569	43704
435.69574	43550
435.71582	44007
435.73587	43841
435.75595	43834
435.776	43867
435.79608	44120
435.81613	44018
435.83621	43712
435.85626	44015
435.87631	43928
435.89639	44028
435.91644	44261
435.93652	43961
435.95657	43930
435.97662	44307
435.9967	44129
436.01675	44116
436.03683	43961
436.05688	44219
436.07693	44095
436.09702	44217
436.11707	44138
436.13712	44170
436.1572	44308
436.17725	43950
436.1973	43986
436.21735	44229
436.23743	44125
436.25748	43919
436.27753	44126
436.29758	44303
436.31766	44017
436.33771	44416
436.35776	44112
436.37781	44567
436.39786	44246
436.41794	44399
436.43799	44341
436.45804	44202
436.47809	44383
436.49814	44468
436.51819	44348
436.53824	44348
436.55832	44379
436.57837	44270
436.59842	44378
436.61847	44180
436.63852	44101
436.65857	44253
436.67862	44255
436.69867	44307
436.71872	43913
436.73877	44010
436.75882	43960
436.77887	44280
436.79892	43879
436.81897	43920
436.83902	43856
436.85907	43974
436.87912	43997
436.89917	43767
436.91922	43970
436.93927	44135
436.95932	44089
436.97937	44179
436.99939	44143
437.01944	44217
437.03949	44244
437.05954	44325
437.07959	43999
437.09964	44279
437.11969	44048
437.13971	44291
437.15976	44295
437.17981	44162
437.19986	44171
437.21991	44182
437.23993	44312
437.25998	44188
437.28003	44597
437.30008	44189
437.3201	44304
437.34015	44536
437.3602	44613
437.38022	44420
437.40027	44616
437.42032	44533
437.44037	44398
437.46039	44558
437.48044	44636
437.50049	44603
437.52051	44734
437.54056	44571
437.56058	44834
437.58063	44350
437.60068	44853
437.6207	44505
437.64075	44644
437.66077	44604
437.68082	44736
437.70084	44526
437.72089	44713
437.74091	44665
437.76096	44746
437.78098	44670
437.80103	44701
437.82104	44901
437.84109	44646
437.86111	44581
437.88116	44832
437.90118	44774
437.92123	44615
437.94125	44862
437.9613	44672
437.98132	44826
438.00134	45074
438.02139	44696
438.04141	44812
438.06146	44563
438.08148	44704
438.1015	44436
438.12155	44610
438.14157	44677
438.16159	44928
438.18161	44705
438.20166	44608
438.22168	44822
438.2417	44449
438.26175	44906
438.28177	44607
438.30179	44791
438.32181	44769
438.34186	45048
438.36188	44948
438.3819	45090
438.40192	45014
438.42194	44718
438.44199	45424
438.46201	45146
438.48203	44969
438.50204	45141
438.52206	45108
438.54208	44978
438.5621	45143
438.58215	44942
438.60217	45047
438.62219	45168
438.64221	45024
438.66223	44967
438.68225	45279
438.70227	45040
438.72229	45273
438.74231	45316
438.76233	45286
438.78235	45336
438.80237	45503
438.82239	45180
438.84241	45450
438.86243	45561
438.88245	45335
438.90247	45466
438.92249	45433
438.9425	45564
438.96252	45412
438.98254	45465
439.00253	45387
439.02255	45451
439.04257	45769
439.06259	45424
439.08261	45520
439.10263	45538
439.12265	45432
439.14264	45467
439.16266	45318
439.18268	45708
439.2027	45341
439.22272	45245
439.24271	45052
439.26273	45496
439.28275	45342
439.30276	45384
439.32275	45616
439.34277	45419
439.36279	45712
439.38281	45467
439.4028	45452
439.42282	45304
439.44284	45555
439.46283	45422
439.48285	45636
439.50287	45432
439.52286	45395
439.54288	45409
439.5629	45391
439.58289	45501
439.60291	45423
439.62289	45165
439.64291	45573
439.6629	45243
439.68292	45576
439.70294	45379
439.72293	45618
439.74295	45560
439.76294	45752
439.78296	45461
439.80295	45769
439.82297	45786
439.84296	45507
439.86298	45824
439.88297	45508
439.90295	45525
439.92297	45348
439.94296	45548
439.96298	45808
439.98297	45366
440.00299	45603
440.02298	45489
440.04297	45561
440.06299	45872
440.08298	45426
440.10297	45676
440.12299	45627
440.14297	45893
440.16296	45558
440.18298	45826
440.20297	45734
440.22296	46080
440.24295	45772
440.26297	45717
440.28296	45863
440.30295	46028
440.32294	46148
440.34296	46288
440.36295	45972
440.38293	46055
440.40292	45878
440.42291	45946
440.44293	45837
440.46292	46031
440.48291	45804
440.5029	45950
440.52289	45729
440.54288	46010
440.56287	45971
440.58289	46076
440.60287	45928
440.62286	46212
440.64285	46173
440.66284	45997
440.68283	46278
440.70282	46366
440.72281	46267
440.7428	46282
440.76279	46460
440.78278	46233
440.80276	46371
440.82275	46370
440.84274	46077
440.86273	46378
440.88272	46453
440.90271	46584
440.9227	46232
440.94269	46472
440.96268	46451
440.98264	46587
441.00262	46358
441.02261	46398
441.0426	46386
441.06259	46399
441.08258	46339
441.10257	46155
441.12256	46468
441.14252	46254
441.16251	46115
441.1825	46334
441.20248	46516
441.22244	46419
441.24243	46496
441.26242	46612
441.28241	46473
441.30237	46469
441.32236	46296
441.34235	46822
441.36234	46712
441.38229	46717
441.40228	46673
441.42227	46710
441.44223	46741
441.46222	46688
441.48221	46737
441.50217	46578
441.52216	46801
441.54214	46871
441.5621	46738
441.58209	46843
441.60205	47074
441.62204	46792
441.642	46857
441.66199	46998
441.68198	46964
441.70193	46999
441.72192	47040
441.74188	47149
441.76187	46951
441.78183	46986
441.80182	47006
441.82178	47121
441.84177	46860
441.86172	47040
441.88168	46763
441.90167	47028
441.92163	47006
441.94162	46858
441.96158	46852
441.98154	46838
442.00153	46796
442.02148	46791
442.04147	46504
442.06143	46747
442.08139	46643
442.10138	46481
442.12134	46409
442.1413	46281
442.16129	46369
442.18124	46221
442.2012	46300
442.22116	46206
442.24115	46201
442.26111	46287
442.28107	46179
442.30103	46102
442.32101	46175
442.34097	46183
442.36093	46447
442.38089	46032
442.40085	45985
442.42081	46202
442.4408	46011
442.46075	46355
442.48071	46201
442.50067	45819
442.52063	46030
442.54059	46126
442.56055	46234
442.58051	46237
442.60046	45972
442.62045	46139
442.64041	46167
442.66037	45824
442.68033	46153
442.70029	45935
442.72025	45934
442.7402	46160
442.76016	45985
442.78012	46104
442.80008	46237
442.82004	46141
442.84	46194
442.85992	46268
442.87988	46134
442.89984	46204
442.9198	46191
442.93976	46151
442.95972	46140
442.97968	46022
442.99963	46182
443.01959	45964
443.03952	46016
443.05948	45719
443.07944	45982
443.0994	46109
443.11935	45783
443.13928	46006
443.15924	45949
443.1792	45986
443.19916	45916
443.21912	46036
443.23904	45855
443.259	45904
443.27896	45902
443.29889	45903
443.31885	46046
443.33881	45891
443.35876	45925
443.37869	46030
443.39865	45781
443.41861	45978
443.43854	45818
443.4585	46094
443.47842	45745
443.49838	45796
443.51834	45814
443.53827	45979
443.55823	45900
443.57816	45818
443.59811	45812
443.61804	45691
443.638	45543
443.65793	45423
443.67789	45758
443.69785	45664
443.71777	45589
443.7377	45698
443.75766	45792
443.77759	45648
443.79755	45961
443.81747	45527
443.83743	45839
443.85736	45852
443.87732	45861
443.89725	45694
443.91718	45774
443.93713	45647
443.95706	46016
443.97699	45685
443.99695	45791
444.01688	45805
444.0368	45425
444.05676	45783
444.07669	45730
444.09662	45513
444.11658	45594
444.13651	45897
444.15643	45935
444.17639	45819
444.19632	45517
444.21625	45639
444.23618	45831
444.2561	45728
444.27606	45609
444.29599	45763
444.31592	45820
444.33585	45665
444.35577	45854
444.3757	45885
444.39566	45973
444.41559	45862
444.43552	45641
444.45544	45844
444.47537	45758
444.4953	45912
444.51523	45705
444.53516	45815
444.55508	45903
444.57501	45545
444.59494	45554
444.61487	45770
444.63483	45757
444.65475	45973
444.67468	45611
444.69458	45530
444.71451	45825
444.73444	45627
444.75436	45632
444.77429	45616
444.79422	45887
444.81415	45821
444.83408	45559
444.854	45673
444.87393	45746
444.89386	45459
444.91379	45442
444.93369	45549
444.95361	45674
444.97354	45428
444.99347	45354
445.0134	45438
445.03333	45609
445.05322	45212
445.07315	45796
445.09308	45305
445.11301	45737
445.13293	45402
445.15283	45684
445.17276	45671
445.19269	45668
445.21259	45699
445.23251	45737
445.25244	45385
445.27237	45657
445.29227	45507
445.31219	45552
445.33209	45599
445.35202	45447
445.37195	45492
445.39185	45650
445.41177	45562
445.4317	45574
445.4516	45481
445.47153	45674
445.49142	45697
445.51135	45687
445.53125	45586
445.55118	45699
445.57108	45614
445.591	45744
445.6109	45678
445.63083	45460
445.65073	45605
445.67065	45808
445.69055	45823
445.71048	45619
445.73038	45621
445.75031	45822
445.7702	45961
445.79013	45691
445.81003	45880
445.82993	45531
445.84985	45556
445.86975	45722
445.88965	45628
445.90958	45375
445.92947	45713
445.94937	45473
445.9693	45626
445.9892	45654
446.00909	45414
446.02902	45625
446.04892	45771
446.06882	45576
446.08871	45702
446.10864	45347
446.12854	45903
446.14844	45945
446.16833	45578
446.18826	45828
446.20816	45653
446.22806	45543
446.24796	45517
446.26785	45765
446.28775	45712
446.30765	45598
446.32758	45428
446.34747	45551
446.36737	45748
446.38727	45646
446.40717	45354
446.42706	45427
446.44696	45337
446.46686	45432
446.48676	45470
446.50665	45257
446.52655	45131
446.54645	45353
446.56635	45465
446.58624	45131
446.60614	45286
446.62604	45281
446.64594	44968
446.66583	45242
446.68573	44959
446.70563	45185
446.72552	44986
446.74542	45338
446.76532	45103
446.78522	45189
446.80508	45084
446.82498	44932
446.84488	45017
446.86478	44873
446.88467	45190
446.90457	44869
446.92444	45143
446.94434	45062
446.96423	44959
446.98413	44865
447.00403	44983
447.0239	44704
447.04379	44796
447.06369	44657
447.08359	44844
447.10345	44855
447.12335	44730
447.14325	44710
447.16312	44749
447.18301	44489
447.20291	44751
447.22278	44493
447.24268	44635
447.26257	44784
447.28244	44305
447.30234	44710
447.3222	44241
447.3421	44610
447.362	44621
447.38187	44439
447.40176	44472
447.42163	44524
447.44153	44328
447.4614	44170
447.48129	43523
447.50116	42156
447.52106	39577
