Date and Time:                Mon Jan 30 17:52:07.000 2023
Software Version:             4.31.30023.0
Temperature (C):              -40
Model:                        DU940P_BU2
Data Type:                    Counts
Acquisition Mode:             Single Scan
Trigger Mode:                 Internal
Exposure Time (secs):         0.7
Readout Mode:                 Full Vertical Binning
Horizontal binning:           1
Extended Dynamic Range:       off
Horizontally flipped:         false
Vertical Shift Speed (usecs): 14.51
Pixel Readout Rate (MHz):     3
Baseline Clamp:               ON
Clock Amplitude:              Normal
Output Amplifier:             High Capacity
Serial Number:                23634
Pre-Amplifier Gain:           1.000000
Spurious Noise Filter Mode:   No Filter
Photon counted:               false
Data Averaging Filter Mode:   No Filter
SR500i:
Serial Number:                
Wavelength (nm):              262.5
Grating Groove Density (l/mm):1199.47
Grating Blaze:                500
Output Flipper Port:          Direct
Accessory Output Port 1:      Off
Accessory Output Port 2:      Off
Accessory Output Port 3:      Off
Accessory Input Port:         On



240.76587	5274
240.7872	5020
240.80855	5035
240.8299	5046
240.85123	5016
240.87257	5060
240.89392	5109
240.91525	5101
240.9366	5075
240.95793	5063
240.97928	4996
241.00063	5018
241.02196	4994
241.0433	5052
241.06464	5034
241.08598	5050
241.10732	5037
241.12866	5069
241.14999	5098
241.17134	5118
241.19267	5077
241.21402	5084
241.23535	5112
241.25668	5130
241.27803	5113
241.29936	5104
241.32071	5118
241.34204	5130
241.36337	5156
241.38472	5146
241.40605	5168
241.42738	5182
241.44873	5222
241.47006	5203
241.49139	5214
241.51274	5225
241.53407	5222
241.5554	5284
241.57674	5267
241.59808	5293
241.61942	5278
241.64075	5216
241.66208	5240
241.68341	5218
241.70476	5215
241.72609	5284
241.74742	5309
241.76875	5298
241.79008	5285
241.81142	5328
241.83275	5345
241.8541	5318
241.87543	5374
241.89676	5320
241.91809	5378
241.93942	5338
241.96075	5380
241.98209	5388
242.00342	5430
242.02475	5427
242.04608	5417
242.06741	5430
242.08875	5390
242.11008	5431
242.13141	5420
242.15274	5437
242.17407	5436
242.1954	5416
242.21674	5365
242.23805	5351
242.25938	5361
242.28072	5376
242.30205	5372
242.32338	5369
242.34471	5389
242.36604	5372
242.38736	5358
242.40869	5391
242.43002	5370
242.45135	5385
242.47269	5383
242.494	5444
242.51534	5476
242.53667	5488
242.55798	5492
242.57932	5494
242.60065	5530
242.62198	5516
242.6433	5499
242.66463	5513
242.68596	5518
242.70728	5510
242.72861	5506
242.74992	5455
242.77126	5487
242.79259	5532
242.8139	5467
242.83524	5470
242.85655	5526
242.87788	5554
242.8992	5556
242.92053	5528
242.94185	5567
242.96318	5592
242.9845	5563
243.00583	5606
243.02715	5699
243.04848	5684
243.06979	5638
243.09113	5661
243.11244	5640
243.13377	5674
243.15509	5611
243.17641	5679
243.19774	5676
243.21906	5688
243.24037	5659
243.2617	5651
243.28302	5699
243.30434	5691
243.32567	5681
243.34698	5677
243.3683	5668
243.38962	5670
243.41095	5658
243.43227	5644
243.45358	5658
243.4749	5592
243.49623	5672
243.51755	5685
243.53886	5654
243.56018	5691
243.5815	5674
243.60283	5677
243.62415	5633
243.64546	5639
243.66678	5652
243.6881	5659
243.70941	5641
243.73073	5665
243.75204	5635
243.77336	5595
243.79468	5669
243.81599	5627
243.83731	5647
243.85863	5672
243.87994	5635
243.90126	5709
243.92258	5702
243.94389	5685
243.96521	5742
243.98653	5731
244.00784	5778
244.02916	5785
244.05048	5788
244.07179	5766
244.09311	5767
244.11443	5770
244.13573	5761
244.15704	5749
244.17836	5817
244.19968	5784
244.22099	5793
244.24231	5803
244.26361	5829
244.28493	5818
244.30624	5848
244.32756	5877
244.34886	5885
244.37018	5933
244.39149	5896
244.4128	5894
244.43411	5914
244.45543	5965
244.47673	5983
244.49805	6046
244.51936	6049
244.54066	6045
244.56198	6080
244.5833	6051
244.6046	6005
244.62592	6059
244.64722	6025
244.66853	6051
244.68983	6036
244.71115	6038
244.73247	6032
244.75377	6043
244.77509	6047
244.79639	5970
244.81769	5985
244.839	6007
244.86031	6025
244.88162	6029
244.90292	6023
244.92424	6066
244.94554	6071
244.96684	6136
244.98816	6149
245.00946	6127
245.03078	6121
245.05208	6154
245.07338	6177
245.0947	6154
245.116	6189
245.1373	6158
245.1586	6153
245.17992	6160
245.20122	6127
245.22252	6149
245.24382	6154
245.26514	6199
245.28644	6218
245.30774	6209
245.32904	6182
245.35034	6135
245.37166	6133
245.39296	6165
245.41426	6198
245.43556	6208
245.45686	6265
245.47816	6292
245.49947	6285
245.52077	6247
245.54208	6225
245.56339	6235
245.58469	6252
245.60599	6244
245.62729	6300
245.64859	6292
245.66989	6290
245.69119	6276
245.71249	6253
245.7338	6279
245.7551	6355
245.77638	6376
245.79768	6402
245.81898	6405
245.84029	6375
245.86159	6398
245.88289	6375
245.90419	6480
245.92549	6490
245.94679	6521
245.96808	6474
245.98938	6459
246.01068	6525
246.03198	6506
246.05328	6524
246.07457	6560
246.09587	6613
246.11717	6568
246.13847	6560
246.15976	6544
246.18106	6601
246.20236	6609
246.22365	6592
246.24495	6568
246.26625	6570
246.28754	6535
246.30884	6578
246.33014	6647
246.35143	6698
246.37273	6634
246.39401	6677
246.41531	6717
246.4366	6710
246.4579	6748
246.4792	6730
246.50049	6760
246.52179	6747
246.54308	6740
246.56438	6738
246.58566	6748
246.60696	6763
246.62825	6757
246.64954	6755
246.67084	6782
246.69212	6825
246.71342	6805
246.73471	6713
246.756	6731
246.7773	6721
246.79858	6720
246.81987	6755
246.84117	6786
246.86246	6784
246.88374	6776
246.90504	6794
246.92633	6826
246.94762	6861
246.9689	6901
246.9902	6882
247.01149	6889
247.03278	6841
247.05406	6835
247.07536	6923
247.09665	6930
247.11794	6965
247.13922	6984
247.16051	6975
247.18179	6956
247.20308	7012
247.22438	7089
247.24567	7102
247.26695	7112
247.28824	7068
247.30952	7110
247.33081	7119
247.3521	7123
247.37338	7146
247.39467	7174
247.41595	7197
247.43724	7199
247.45853	7234
247.47981	7233
247.5011	7231
247.52238	7203
247.54367	7229
247.56496	7255
247.58624	7282
247.60751	7246
247.6288	7273
247.65009	7259
247.67137	7260
247.69266	7331
247.71394	7288
247.73523	7282
247.7565	7245
247.77779	7192
247.79907	7228
247.82036	7208
247.84163	7228
247.86292	7301
247.8842	7281
247.90549	7321
247.92676	7305
247.94804	7349
247.96933	7341
247.9906	7359
248.01189	7298
248.03317	7293
248.05444	7257
248.07573	7278
248.097	7234
248.11829	7316
248.13957	7314
248.16084	7263
248.18213	7263
248.2034	7223
248.22469	7225
248.24596	7257
248.26724	7218
248.28851	7264
248.3098	7350
248.33107	7338
248.35236	7335
248.37363	7369
248.39491	7350
248.41618	7378
248.43745	7351
248.45874	7416
248.48001	7435
248.5013	7422
248.52257	7376
248.54384	7376
248.56512	7329
248.5864	7308
248.60767	7351
248.62894	7373
248.65022	7468
248.67149	7450
248.69276	7460
248.71405	7396
248.73532	7361
248.75659	7364
248.77786	7395
248.79913	7396
248.82042	7439
248.84169	7499
248.86296	7456
248.88423	7435
248.9055	7452
248.92677	7423
248.94804	7451
248.96931	7480
248.9906	7456
249.01187	7499
249.03314	7443
249.05441	7428
249.07568	7432
249.09695	7433
249.11823	7459
249.1395	7430
249.16077	7412
249.18204	7429
249.20331	7442
249.22458	7420
249.24585	7389
249.26711	7442
249.28838	7468
249.30965	7494
249.33092	7559
249.35219	7520
249.37346	7522
249.39473	7581
249.41599	7558
249.43726	7564
249.45853	7470
249.4798	7412
249.50107	7494
249.52232	7450
249.54359	7418
249.56487	7445
249.58614	7488
249.60739	7517
249.62866	7512
249.64993	7518
249.67119	7477
249.69246	7487
249.71373	7527
249.73499	7550
249.75626	7650
249.77753	7683
249.79878	7641
249.82005	7673
249.84131	7631
249.86258	7648
249.88385	7602
249.90511	7556
249.92638	7641
249.94763	7635
249.9689	7641
249.99016	7667
250.01143	7635
250.03268	7631
250.05394	7687
250.07521	7738
250.09647	7732
250.11774	7784
250.13899	7762
250.16026	7797
250.18152	7719
250.20277	7761
250.22404	7813
250.2453	7852
250.26656	7954
250.28783	7961
250.30908	7969
250.33034	8011
250.35159	8022
250.37286	7987
250.39412	7944
250.41537	7975
250.43663	7976
250.4579	7994
250.47916	7965
250.50041	7923
250.52167	7992
250.54292	7986
250.56418	7945
250.58545	7922
250.6067	7938
250.62796	7924
250.64922	7991
250.67047	7959
250.69173	7974
250.71298	8015
250.73424	8019
250.75549	8135
250.77675	8157
250.798	8141
250.81926	8154
250.84052	8151
250.86177	8131
250.88303	8149
250.90428	8155
250.92554	8130
250.94679	8118
250.96805	8122
250.9893	8092
251.01056	8118
251.0318	8111
251.05305	8139
251.07431	8129
251.09557	8149
251.11682	8165
251.13808	8158
251.15932	8145
251.18057	8062
251.20183	8114
251.22308	8093
251.24432	8138
251.26558	8217
251.28683	8244
251.30807	8194
251.32933	8129
251.35059	8129
251.37183	8209
251.39308	8182
251.41434	8290
251.43558	8277
251.45683	8317
251.47809	8220
251.49933	8239
251.52058	8278
251.54182	8325
251.56308	8363
251.58432	8396
251.60558	8363
251.62682	8374
251.64807	8386
251.66931	8382
251.69057	8428
251.71181	8457
251.73306	8492
251.7543	8459
251.77556	8524
251.7968	8592
251.81804	8630
251.83929	8581
251.86053	8601
251.88177	8614
251.90303	8576
251.92427	8652
251.94551	8620
251.96677	8716
251.98801	8729
252.00925	8679
252.03049	8630
252.05174	8654
252.07298	8643
252.09422	8695
252.11546	8729
252.13672	8787
252.15796	8725
252.1792	8759
252.20044	8795
252.22168	8785
252.24292	8794
252.26416	8811
252.28542	8835
252.30666	8836
252.3279	8866
252.34914	8831
252.37038	8861
252.39162	8908
252.41286	8908
252.4341	8861
252.45534	8889
252.47658	8923
252.49782	8984
252.51906	8956
252.5403	8971
252.56154	8915
252.58278	8939
252.60402	8852
252.62524	8813
252.64648	8849
252.66772	8858
252.68896	8861
252.71021	8862
252.73145	8950
252.75269	8931
252.77391	8908
252.79515	8880
252.81639	8868
252.83763	8861
252.85886	8940
252.8801	9001
252.90134	9046
252.92258	9028
252.9438	8979
252.96504	9020
252.98628	9103
253.00751	9107
253.02875	9111
253.04999	9153
253.07121	9231
253.09245	9140
253.11368	9083
253.13492	9038
253.15616	9031
253.17738	9040
253.19862	9101
253.21985	9193
253.24109	9238
253.26231	9305
253.28355	9246
253.30478	9239
253.32602	9245
253.34724	9297
253.36847	9302
253.38971	9346
253.41093	9372
253.43217	9364
253.4534	9334
253.47462	9274
253.49586	9300
253.51709	9321
253.53831	9284
253.55956	9348
253.58078	9379
253.60201	9425
253.62325	9303
253.64447	9336
253.6657	9354
253.68692	9399
253.70816	9372
253.72939	9459
253.75061	9493
253.77184	9463
253.79306	9416
253.8143	9430
253.83553	9454
253.85675	9482
253.87798	9510
253.8992	9544
253.92043	9587
253.94165	9588
253.96288	9551
253.9841	9504
254.00533	9480
254.02655	9439
254.04778	9452
254.069	9512
254.09023	9590
254.11145	9612
254.13268	9645
254.1539	9683
254.17513	9666
254.19635	9695
254.21758	9698
254.2388	9726
254.26003	9764
254.28125	9769
254.30247	9754
254.32368	9775
254.34491	9771
254.36613	9781
254.38736	9756
254.40858	9839
254.42979	9916
254.45102	10046
254.47224	9987
254.49347	9981
254.51468	9902
254.5359	10057
254.55713	10133
254.57834	10146
254.59956	10185
254.62079	10215
254.642	10312
254.66322	10250
254.68445	10210
254.70566	10290
254.72688	10250
254.74809	10233
254.76932	10293
254.79054	10274
254.81175	10213
254.83298	10261
254.85419	10231
254.87541	10231
254.89662	10159
254.91785	10100
254.93906	10202
254.96027	10107
254.98149	10140
255.0027	10157
255.02393	10192
255.04514	10236
255.06635	10312
255.08757	10349
255.10878	10355
255.12999	10400
255.15121	10388
255.17242	10386
255.19363	10374
255.21486	10405
255.23607	10394
255.25728	10452
255.27849	10380
255.29971	10361
255.32092	10336
255.34213	10418
255.36334	10375
255.38455	10389
255.40578	10425
255.42699	10394
255.4482	10366
255.46941	10397
255.49062	10408
255.51183	10447
255.53304	10564
255.55424	10580
255.57545	10602
255.59666	10609
255.61787	10577
255.63908	10602
255.66029	10571
255.6815	10540
255.70271	10624
255.72392	10584
255.74513	10620
255.76634	10585
255.78755	10649
255.80876	10649
255.82997	10670
255.85118	10763
255.87239	10858
255.8936	10854
255.91479	10862
255.936	10864
255.95721	10819
255.97842	10883
255.99963	10938
256.02084	10990
256.04205	11104
256.06323	11131
256.08444	11118
256.10565	11145
256.12686	11164
256.14807	11113
256.16928	11178
256.19046	11136
256.21167	11189
256.23288	11219
256.25409	11204
256.2753	11220
256.29651	11216
256.31769	11190
256.3389	11174
256.36011	11089
256.38132	11140
256.4025	11206
256.42371	11327
256.44492	11293
256.46613	11276
256.4873	11322
256.50851	11449
256.52972	11495
256.55093	11477
256.57211	11483
256.59332	11549
256.61453	11601
256.63571	11522
256.65692	11519
256.67813	11616
256.69931	11585
256.72052	11560
256.74173	11431
256.76291	11459
256.78412	11554
256.80533	11535
256.82651	11571
256.84772	11526
256.8689	11628
256.89011	11613
256.91132	11527
256.9325	11491
256.9537	11492
256.97488	11470
256.99609	11587
257.0173	11607
257.03848	11670
257.05969	11695
257.08087	11583
257.10208	11539
257.12326	11613
257.14447	11598
257.16565	11709
257.18686	11787
257.20804	11861
257.22925	11813
257.25043	11823
257.27164	11780
257.29282	11954
257.31403	11967
257.33521	11984
257.35641	11957
257.37759	11941
257.3988	11893
257.41998	11901
257.44116	11946
257.46237	12038
257.48355	12191
257.50476	12119
257.52594	12128
257.54712	12252
257.56833	12341
257.58951	12381
257.61072	12346
257.6319	12323
257.65308	12295
257.67429	12306
257.69547	12326
257.71664	12376
257.73785	12440
257.75903	12444
257.78021	12409
257.80142	12350
257.8226	12366
257.84378	12322
257.86496	12455
257.88617	12506
257.90735	12615
257.92853	12522
257.94974	12492
257.97092	12627
257.9921	12635
258.01328	12694
258.03448	12634
258.05566	12624
258.07684	12705
258.09802	12616
258.1192	12629
258.14041	12686
258.16159	12772
258.18277	12724
258.20395	12651
258.22513	12801
258.24631	12942
258.26752	12883
258.2887	12920
258.30988	12900
258.33105	12834
258.35223	12794
258.37341	12660
258.39459	12672
258.4158	12566
258.43698	12557
258.45816	12633
258.47934	12722
258.50052	12776
258.5217	12720
258.54288	12649
258.56406	12608
258.58524	12575
258.60641	12680
258.62759	12762
258.64877	12884
258.66995	12948
258.69113	12814
258.71231	12861
258.73349	12932
258.75467	12978
258.77585	13024
258.79703	13108
258.81821	13148
258.83939	13192
258.86057	13160
258.88174	13000
258.90292	12992
258.9241	13058
258.94528	13050
258.96646	13177
258.98764	13318
259.00882	13420
259.03	13472
259.05118	13366
259.07233	13448
259.09351	13557
259.11469	13635
259.13586	13718
259.15704	13818
259.17822	13915
259.1994	13909
259.22058	13788
259.24173	13833
259.26291	13844
259.28409	13847
259.30527	13897
259.32645	13887
259.3476	13909
259.36877	13923
259.38995	13948
259.41113	13902
259.43231	13981
259.45346	14021
259.47464	14029
259.49582	14109
259.517	14069
259.53815	14032
259.55933	14020
259.58051	14002
259.60168	14072
259.62283	14105
259.64401	14278
259.66519	14358
259.68634	14414
259.70752	14429
259.7287	14295
259.74985	14187
259.77103	14200
259.79221	14226
259.81335	14266
259.83453	14400
259.85571	14502
259.87686	14442
259.89804	14461
259.91919	14420
259.94037	14401
259.96155	14465
259.9827	14489
260.00388	14529
260.02502	14541
260.0462	14597
260.06738	14571
260.08853	14539
260.10971	14444
260.13086	14493
260.15204	14543
260.17319	14727
260.19437	14839
260.21552	14893
260.23669	14849
260.25784	14823
260.27902	14825
260.30017	14903
260.32135	14981
260.3425	15069
260.36368	15176
260.38483	15182
260.40601	15177
260.42715	15330
260.4483	15319
260.46948	15342
260.49063	15401
260.51181	15447
260.53296	15433
260.55414	15451
260.57529	15372
260.59644	15452
260.61761	15380
260.63876	15395
260.65991	15337
260.68109	15306
260.70224	15252
260.72339	15310
260.74457	15320
260.76572	15397
260.78687	15371
260.80804	15432
260.82919	15549
260.85034	15616
260.87152	15611
260.89267	15603
260.91382	15673
260.935	15728
260.95615	15604
260.97729	15612
260.99844	15615
261.01962	15624
261.04077	15600
261.06192	15423
261.08307	15447
261.10422	15577
261.1254	15578
261.14655	15503
261.16769	15495
261.18884	15474
261.20999	15423
261.23117	15406
261.25232	15483
261.27347	15599
261.29462	15656
261.31577	15652
261.33691	15736
261.35806	15674
261.37924	15650
261.40039	15621
261.42154	15702
261.44269	15679
261.46384	15776
261.48499	15880
261.50613	15852
261.52728	15900
261.54843	15871
261.56958	15820
261.59073	15919
261.61188	16116
261.63306	16209
261.65421	16247
261.67535	16176
261.6965	16059
261.71765	16021
261.7388	15963
261.75995	16067
261.7811	16211
261.80225	16359
261.82339	16361
261.84451	16351
261.86566	16396
261.88681	16449
261.90796	16401
261.92911	16346
261.95026	16317
261.97141	16352
261.99255	16232
262.0137	16236
262.03485	16248
262.056	16245
262.07715	16207
262.09827	16112
262.11942	16250
262.14056	16365
262.16171	16511
262.18286	16500
262.20401	16453
262.22516	16409
262.24628	16467
262.26743	16655
262.28857	16799
262.30972	16745
262.33087	16740
262.35199	16761
262.37314	16949
262.39429	16917
262.41544	16723
262.43658	16754
262.4577	16826
262.47885	16759
262.5	16800
262.52115	16800
262.54227	16927
262.56342	17021
262.58456	17125
262.60568	17311
262.62683	17407
262.64798	17278
262.6691	17177
262.69025	17107
262.7114	17110
262.73251	17143
262.75366	17293
262.77481	17435
262.79593	17374
262.81708	17396
262.83823	17313
262.85934	17190
262.88049	17312
262.90164	17303
262.92276	17364
262.94391	17581
262.96503	17689
262.98618	17684
263.00729	17571
263.02844	17632
263.04959	17761
263.07071	17804
263.09186	17904
263.11298	17862
263.13412	17883
263.15524	17879
263.17639	17771
263.19751	17734
263.21866	17744
263.23978	17810
263.26093	17798
263.28204	18000
263.30319	18052
263.32431	18129
263.34543	18131
263.36658	18174
263.3877	18242
263.40884	18296
263.42996	18353
263.45111	18344
263.47223	18388
263.49335	18370
263.5145	18303
263.53561	18353
263.55676	18316
263.57788	18420
263.599	18520
263.62015	18482
263.64127	18497
263.66238	18604
263.68353	18585
263.70465	18529
263.72577	18554
263.74692	18608
263.76804	18704
263.78915	18684
263.8103	18701
263.83142	18531
263.85254	18553
263.87366	18582
263.89481	18704
263.91592	18727
263.93704	18675
263.95816	18776
263.97931	18851
264.00043	18857
264.02155	18897
264.04266	18727
264.06378	18565
264.08493	18611
264.10605	18377
264.12717	18185
264.14828	18192
264.1694	18116
264.19055	18086
264.21167	18253
264.23279	18283
264.25391	18314
264.27502	18244
264.29614	18322
264.31726	18260
264.33838	18320
264.3595	18422
264.38065	18476
264.40176	18699
264.42288	18786
264.444	18677
264.46512	18782
264.48624	18979
264.50735	18998
264.52847	19059
264.54959	19070
264.57071	19068
264.59183	19037
264.61295	18889
264.63406	18827
264.65518	18877
264.6763	18822
264.69742	18909
264.71854	18981
264.73965	19220
264.76077	19357
264.78189	19233
264.80301	19122
264.82413	19192
264.84525	19373
264.86636	19556
264.88748	19674
264.90857	19805
264.92969	19812
264.95081	19820
264.97192	19817
264.99304	19799
265.01416	19664
265.03528	19686
265.0564	19769
265.07748	19824
265.0986	19770
265.11972	19798
265.14084	19789
265.16196	19862
265.18307	19837
265.20416	19849
265.22528	19839
265.2464	19823
265.26752	19817
265.2886	19746
265.30972	19749
265.33084	19840
265.35196	19872
265.37308	19975
265.39417	20175
265.41528	20302
265.4364	20299
265.45749	20244
265.47861	20156
265.49973	20110
265.52081	20114
265.54193	20257
265.56305	20213
265.58417	20427
265.60526	20558
265.62637	20562
265.64746	20483
265.66858	20478
265.6897	20458
265.71078	20433
265.7319	20490
265.75302	20401
265.77411	20452
265.79523	20584
265.81631	20468
265.83743	20408
265.85855	20334
265.87964	20349
265.90076	20470
265.92184	20634
265.94296	20683
265.96405	20573
265.98517	20575
266.00626	20434
266.02737	20467
266.04846	20548
266.06958	20734
266.09067	20925
266.11179	21013
266.13287	20955
266.15399	20988
266.17508	20987
266.1962	21008
266.21729	21080
266.2384	21125
266.25949	21243
266.28058	21174
266.3017	21095
266.32278	21114
266.3439	21141
266.36499	21000
266.38608	20860
266.4072	20826
266.42828	20910
266.44937	20920
266.47049	20976
266.49158	20995
266.5127	21113
266.53378	21145
266.55487	21220
266.57596	21394
266.59708	21435
266.61816	21403
266.63925	21457
266.66037	21574
266.68146	21618
266.70255	21591
266.72363	21520
266.74475	21639
266.76584	21603
266.78693	21555
266.80801	21398
266.82913	21464
266.85022	21520
266.87131	21610
266.8924	21584
266.91351	21673
266.9346	21667
266.95569	21567
266.97678	21428
266.99786	21563
267.01895	21677
267.04007	21756
267.06116	21836
267.08224	21760
267.10333	21884
267.12442	21696
267.14551	21701
267.1666	21711
267.18768	21701
267.20877	21714
267.22989	21837
267.25098	21854
267.27206	21875
267.29315	21731
267.31424	21812
267.33533	21892
267.35641	21971
267.3775	22108
267.39859	22111
267.41968	22107
267.44077	22028
267.46185	21991
267.48294	22047
267.50403	22226
267.52512	22347
267.5462	22496
267.56729	22387
267.58838	22460
267.60947	22659
267.63055	22716
267.65164	22627
267.6727	22623
267.69379	22612
267.71487	22509
267.73596	22522
267.75705	22523
267.77814	22618
267.79922	22529
267.82031	22409
267.8414	22190
267.86246	22336
267.88354	22561
267.90463	22683
267.92572	22838
267.94681	22633
267.9679	22552
267.98895	22608
268.01004	22754
268.03113	22926
268.05222	22757
268.0733	22830
268.09436	22952
268.11545	22866
268.13654	22898
268.15762	22693
268.17868	22880
268.19977	22802
268.22086	22676
268.24191	22742
268.263	22919
268.28409	22959
268.30518	22938
268.32623	23060
268.34732	23158
268.36841	23135
268.38947	23036
268.41055	22808
268.43164	22764
268.4527	22759
268.47379	22768
268.49484	22899
268.51593	22997
268.53702	23118
268.55807	23048
268.57916	22920
268.60022	22940
268.62131	22945
268.6424	23014
268.66345	23226
268.68454	23403
268.7056	23509
268.72668	23474
268.74774	23290
268.76883	23416
268.78989	23546
268.81097	23610
268.83203	23631
268.85312	23695
268.87418	23580
268.89526	23616
268.91632	23513
268.93741	23422
268.95847	23423
268.97955	23506
269.00061	23514
269.0217	23732
269.04276	23972
269.06381	24026
269.0849	23999
269.10596	23947
269.12704	24063
269.1481	24089
269.16916	24215
269.19025	24208
269.2113	24399
269.23236	24257
269.25345	24212
269.27451	24324
269.29556	24295
269.31665	24260
269.33771	24393
269.35876	24307
269.37985	24449
269.40091	24284
269.42197	24151
269.44305	24178
269.46411	24276
269.48517	24324
269.50623	24412
269.52731	24459
269.54837	24388
269.56943	24324
269.59048	24156
269.61157	24261
269.63263	24403
269.65369	24422
269.67474	24396
269.6958	24499
269.71686	24667
269.73795	24632
269.759	24694
269.78006	24592
269.80112	24435
269.82217	24414
269.84323	24139
269.86429	24070
269.88538	24019
269.90643	24004
269.92749	24091
269.94855	24227
269.9696	24230
269.99066	24212
270.01172	24204
270.03278	24181
270.05383	24101
270.07489	24230
270.09595	24508
270.117	24734
270.13806	24953
270.15912	25051
270.18018	24896
270.20123	25012
270.22229	24997
270.24335	25107
270.2644	25159
270.28546	25165
270.30652	25156
270.32758	24997
270.34863	24814
270.36969	24703
270.39075	24662
270.4118	24688
270.43286	24856
270.45392	25150
270.47498	25264
270.49603	25266
270.51706	25062
270.53812	25051
270.55917	25138
270.58023	25444
270.60129	25593
270.62234	25766
270.6434	25838
270.66443	25890
270.68549	25831
270.70654	25779
270.7276	25749
270.74866	25810
270.76968	25718
270.79074	25898
270.8118	25747
270.83286	25733
270.85388	25708
270.87494	25757
270.896	25857
270.91705	25831
270.93808	25850
270.95914	25693
270.98019	25826
271.00122	25616
271.02228	25546
271.04333	25691
271.06439	25863
271.08542	26026
271.10648	26271
271.12753	26250
271.14856	26323
271.16962	26371
271.19064	26369
271.2117	26095
271.23276	26166
271.25378	26199
271.27484	26234
271.29587	26246
271.31693	26311
271.33798	26295
271.35901	26444
271.38007	26510
271.40109	26446
271.42215	26315
271.44318	26251
271.46423	26163
271.48526	26120
271.50632	26265
271.52734	26185
271.5484	26263
271.56943	26098
271.59048	25902
271.61151	26047
271.63257	26263
271.65359	26595
271.67465	26493
271.69568	26533
271.71674	26482
271.73776	26337
271.75879	26400
271.77985	26506
271.80087	26702
271.82193	26833
271.84296	26992
271.86398	26952
271.88504	26947
271.90607	27110
271.92709	27162
271.94815	27099
271.96918	27185
271.9902	27217
272.01126	27157
272.03229	27128
272.05331	27201
272.07437	27249
272.0954	27195
272.11642	26867
272.13748	26866
272.15851	26881
272.17953	26914
272.20056	26971
272.22162	27095
272.24265	27178
272.26367	27144
272.2847	27325
272.30573	27548
272.32678	27683
272.34781	27446
272.36884	27602
272.38986	27736
272.41089	27715
272.43195	27724
272.45297	27750
272.474	27808
272.49503	27874
272.51605	27758
272.53708	27630
272.55811	27794
272.57913	27801
272.60019	27685
272.62122	27815
272.64224	27844
272.66327	27846
272.6843	27579
272.70532	27454
272.72635	27459
272.74738	27591
272.7684	27749
272.78943	27655
272.81046	27691
272.83148	27599
272.85251	27572
272.87354	27743
272.89456	27821
272.91559	27689
272.93661	27826
272.95764	28115
272.97867	28234
272.99969	28072
273.02072	27911
273.04175	27910
273.06277	28209
273.0838	28261
273.10483	28331
273.12582	28382
273.14685	28379
273.16788	28318
273.1889	28378
273.20993	28356
273.23096	28498
273.25198	28648
273.27298	28782
273.29401	28745
273.31503	28871
273.33606	28981
273.35709	29080
273.37811	29032
273.39911	29178
273.42014	29149
273.44116	29080
273.46219	29123
273.48318	29313
273.50421	29385
273.52524	29391
273.54626	29102
273.56726	29069
273.58829	29022
273.60931	29316
273.63034	29561
273.65134	29699
273.67236	29615
273.69339	29392
273.71439	29434
273.73541	29560
273.75644	29711
273.77744	29634
273.79846	29532
273.81949	29599
273.84048	29636
273.86151	29654
273.88251	29581
273.90353	29687
273.92456	29570
273.94556	29417
273.96658	29461
273.98758	29688
274.00861	29799
274.0296	29784
274.05063	29660
274.07166	29499
274.09265	29485
274.11368	29332
274.13467	29194
274.1557	29183
274.1767	29215
274.19772	29233
274.21872	29356
274.23975	29589
274.26074	29576
274.28174	29491
274.30276	29517
274.32376	29563
274.34479	29469
274.36578	29764
274.38681	29980
274.40781	30125
274.4288	30190
274.44983	30165
274.47083	30148
274.49185	30354
274.51285	30374
274.53384	30443
274.55487	30450
274.57587	30356
274.59686	30231
274.61789	30256
274.63889	30147
274.65988	30233
274.68091	30313
274.7019	30221
274.7229	30401
274.7439	30700
274.76492	30812
274.78592	30848
274.80692	30793
274.82791	30870
274.84894	30998
274.86993	31143
274.89093	31329
274.91193	31510
274.93295	31605
274.95395	31610
274.97495	31714
274.99594	31758
275.01694	31540
275.03793	31378
275.05896	31490
275.07996	31595
275.10095	31619
275.12195	31550
275.14294	31564
275.16394	31807
275.18494	31932
275.20593	32048
275.22696	32003
275.24796	31948
275.26895	31781
275.28995	31560
275.31094	31584
275.33194	31540
275.35294	31711
275.37393	31808
275.39493	32016
275.41592	32311
275.43692	32271
275.45792	32517
275.47891	32250
275.49991	32127
275.5209	32174
275.5419	32142
275.5629	32019
275.58389	32169
275.60489	32062
275.62589	31855
275.64688	31922
275.66788	31916
275.68884	31997
275.70984	32005
275.73083	32135
275.75183	32038
275.77283	31954
275.79382	32267
275.81482	32385
275.83582	32883
275.85678	33045
275.87778	33045
275.89877	32795
275.91977	32897
275.94077	33017
275.96176	33209
275.98273	33268
276.00372	33264
276.02472	33259
276.04572	33084
276.06668	32958
276.08768	32934
276.10867	32840
276.12967	33161
276.15063	33118
276.17163	33495
276.19263	33622
276.21362	33447
276.23459	33385
276.25558	33371
276.27658	33808
276.29755	33902
276.31854	34102
276.33954	34188
276.3605	34381
276.3815	34127
276.4025	34175
276.42346	34363
276.44446	34437
276.46542	34592
276.48642	34623
276.50742	34559
276.52838	34635
276.54938	34496
276.57034	34817
276.59134	34640
276.6123	34766
276.6333	34611
276.65427	34767
276.67526	34574
276.69623	34812
276.71722	34650
276.73822	34764
276.75919	34895
276.78015	34969
276.80115	35059
276.82211	35243
276.84311	35392
276.86407	35412
276.88507	35553
276.90604	35741
276.92703	35914
276.948	35641
276.96896	35569
276.98996	35686
277.01093	35724
277.03192	36016
277.05289	35890
277.07385	36085
277.09485	35951
277.11581	36080
277.13678	35881
277.15778	35860
277.17874	35911
277.19971	35919
277.2207	35910
277.24167	36221
277.26263	36227
277.28363	35744
277.3046	35806
277.32556	35754
277.34653	35921
277.36752	36131
277.38849	36229
277.40945	36182
277.43042	36195
277.45142	36200
277.47238	36075
277.49335	36427
277.51431	36350
277.53528	36927
277.55624	36912
277.57724	37016
277.59821	37075
277.61917	37126
277.64014	37194
277.6611	37054
277.68207	37237
277.70303	37170
277.72403	37195
277.745	37182
277.76596	37138
277.78693	37285
277.80789	37364
277.82886	36935
277.84982	36901
277.87079	36921
277.89175	37063
277.91272	37224
277.93369	37424
277.95465	37584
277.97562	37295
277.99658	37569
278.01755	37714
278.03851	37897
278.05948	37589
278.08044	37776
278.10141	37623
278.12238	37938
278.14334	37889
278.16431	37820
278.18527	37916
278.20624	37978
278.2272	37707
278.24817	37585
278.2691	37421
278.29007	37664
278.31104	37494
278.332	37435
278.35297	37579
278.37393	37407
278.3949	37362
278.41583	36999
278.4368	37039
278.45776	36907
278.47873	36885
278.49969	37061
278.52063	37205
278.5416	37148
278.56256	37121
278.58353	37175
278.60449	37386
278.62543	37096
278.64639	37400
278.66736	37633
278.68829	37586
278.70926	37775
278.73022	37545
278.75119	37274
278.77213	37608
278.79309	37871
278.81406	38252
278.83499	38379
278.85596	38304
278.87692	38443
278.89786	38299
278.91882	37933
278.93976	38296
278.96072	38246
278.98169	38274
279.00262	38512
279.02359	38537
279.04453	38929
279.06549	39122
279.08646	39022
279.10739	39008
279.12836	39024
279.14929	38925
279.17026	39058
279.19119	39129
279.21216	39308
279.23309	39439
279.25406	39373
279.27499	39492
279.29596	39224
279.31689	39290
279.33786	39055
279.3588	39446
279.37976	39578
279.4007	39248
279.42163	39416
279.4426	39467
279.46353	39558
279.4845	39576
279.50543	39747
279.52637	39623
279.54733	39600
279.56827	39609
279.58923	39596
279.61017	39744
279.6311	39712
279.65207	39748
279.673	39920
279.69394	39807
279.7149	40185
279.73584	40089
279.75677	40324
279.77771	39825
279.79868	39677
279.81961	39581
279.84055	39623
279.86148	39600
279.88245	39550
279.90338	39622
279.92432	39694
279.94525	39694
279.96622	39613
279.98715	39979
280.00809	39769
280.02902	39700
280.04996	39895
280.07089	40250
280.09186	40436
280.11279	41016
280.13373	40725
280.15466	40975
280.1756	40814
280.19653	40776
280.21747	40646
280.2384	40877
280.25937	40851
280.2803	41301
280.30124	40981
280.32217	41018
280.34311	40910
280.36404	40423
280.38498	40786
280.40591	40866
280.42685	40970
280.44778	41369
280.46872	41829
280.48965	41852
280.51059	41710
280.53152	41368
280.55246	41613
280.57339	41978
280.59433	42036
280.61526	42081
280.6362	42308
280.65714	42315
280.67804	42136
280.69897	42290
280.71991	42321
280.74084	42489
280.76178	42474
280.78271	42376
280.80365	42686
280.82458	42570
280.84549	42700
280.86642	42487
280.88736	42602
280.90829	42732
280.92923	42422
280.95016	42420
280.97107	42617
280.992	42492
281.01294	42738
281.03387	42500
281.05478	42612
281.07571	43187
281.09665	43177
281.11758	43363
281.13849	43398
281.15942	43580
281.18036	43377
281.20129	42934
281.2222	42959
281.24313	43014
281.26407	42791
281.28497	42846
281.30591	42923
281.32684	43011
281.34775	42759
281.36868	42738
281.38959	42899
281.41052	43155
281.43146	42862
281.45236	43532
281.4733	43111
281.4942	43734
281.51514	43667
281.53607	44235
281.55698	44417
281.57791	44587
281.59882	44729
281.61975	44824
281.64066	44488
281.66159	44825
281.6825	44681
281.70343	44786
281.72433	44819
281.74527	44645
281.76617	44656
281.78711	44817
281.80801	44850
281.82895	45016
281.84985	45069
281.87076	45425
281.89169	45519
281.9126	45561
281.93353	45432
281.95444	45583
281.97534	45596
281.99628	45864
282.01718	45934
282.03812	45885
282.05902	46127
282.07993	46425
282.10086	46492
282.12177	46383
282.14267	46459
282.16357	46745
282.18451	46891
282.20541	46705
282.22632	46821
282.24725	46500
282.26816	46501
282.28906	46662
282.30997	46586
282.3309	46370
282.35181	46698
282.37271	46593
282.39362	46810
282.41452	46944
282.43546	46856
282.45636	47155
282.47726	47366
282.49817	47409
282.51907	47533
282.53998	47510
282.56091	47877
282.58182	48026
282.60272	48013
282.62363	48075
282.64453	48046
282.66544	48009
282.68634	48000
282.70724	48094
282.72815	48115
282.74905	48082
282.76999	48074
282.79089	48093
282.8118	48158
282.8327	48146
282.85361	48040
282.87451	47948
282.89542	47893
282.91632	47880
282.93723	47878
282.95813	47809
282.97903	47722
282.99994	47811
283.02081	47871
283.04172	47817
283.06262	47827
283.08353	47828
283.10443	47710
283.12534	47738
283.14624	47726
283.16714	47785
283.18805	47807
283.20895	47929
283.22983	47919
283.25073	47910
283.27164	47858
283.29254	47770
283.31345	47722
283.33435	47733
283.35522	47867
283.37613	47908
283.39703	48017
283.41794	48056
283.43884	48053
283.45972	48017
283.48062	47980
283.50153	47931
283.52243	47903
283.5433	47934
283.56421	48053
283.58511	48152
283.60599	48209
283.62689	48235
283.6478	48264
283.66867	48240
283.68958	48228
283.71048	48214
283.73135	48251
283.75226	48279
283.77316	48278
283.79404	48289
283.81494	48350
283.83585	48448
283.85672	48541
283.87762	48610
283.8985	48649
283.9194	48631
283.94028	48559
283.96118	48332
283.98209	47739
284.00296	45775
284.02386	42295
