Date and Time:                Thu Sep 8 17:00:23.000 2022
Software Version:             4.31.30023.0
Temperature (C):              -40
Model:                        DU940P_BU2
Data Type:                    Counts
Acquisition Mode:             Single Scan
Trigger Mode:                 Internal
Exposure Time (secs):         0.25
Readout Mode:                 Full Vertical Binning
Horizontal binning:           1
Extended Dynamic Range:       off
Horizontally flipped:         false
Vertical Shift Speed (usecs): 14.51
Pixel Readout Rate (MHz):     3
Baseline Clamp:               ON
Clock Amplitude:              Normal
Output Amplifier:             High Capacity
Serial Number:                23634
Pre-Amplifier Gain:           1.000000
Spurious Noise Filter Mode:   No Filter
Photon counted:               false
Data Averaging Filter Mode:   No Filter
SR500i:
Serial Number:                
Wavelength (nm):              277
Grating Groove Density (l/mm):1199.47
Grating Blaze:                500
Output Flipper Port:          Direct
Accessory Output Port 1:      Off
Accessory Output Port 2:      Off
Accessory Output Port 3:      Off
Accessory Input Port:         On



255.33896	5345
255.36023	5138
255.38152	5098
255.40279	5150
255.42406	5163
255.44533	5208
255.4666	5206
255.48787	5188
255.50914	5204
255.53041	5218
255.55168	5198
255.57295	5153
255.59422	5165
255.61549	5195
255.63676	5217
255.65805	5257
255.67931	5244
255.70058	5264
255.72185	5250
255.74312	5252
255.76439	5238
255.78566	5260
255.80693	5248
255.8282	5255
255.84947	5257
255.87074	5229
255.89201	5223
255.91328	5210
255.93454	5202
255.95581	5290
255.97708	5308
255.99835	5342
256.01962	5370
256.04089	5321
256.06216	5317
256.08344	5323
256.10468	5359
256.12595	5386
256.14722	5450
256.16849	5453
256.18976	5475
256.21103	5486
256.2323	5488
256.25354	5462
256.27481	5455
256.29608	5513
256.31735	5519
256.33862	5529
256.35986	5505
256.38113	5493
256.4024	5550
256.42368	5512
256.44495	5561
256.46619	5539
256.48746	5525
256.50873	5522
256.53	5530
256.55124	5532
256.57251	5558
256.59378	5596
256.61505	5601
256.63629	5673
256.65756	5674
256.67883	5694
256.7001	5655
256.72134	5684
256.74261	5685
256.76389	5632
256.78513	5676
256.8064	5661
256.82767	5676
256.84891	5639
256.87018	5610
256.89145	5614
256.91269	5646
256.93396	5661
256.95523	5640
256.97647	5681
256.99774	5652
257.01901	5668
257.04025	5633
257.06152	5670
257.08276	5694
257.10403	5700
257.12531	5724
257.14655	5726
257.16782	5778
257.18906	5739
257.21033	5724
257.23157	5701
257.25284	5748
257.27411	5766
257.29535	5784
257.31662	5756
257.33786	5783
257.35913	5717
257.38037	5759
257.40164	5783
257.42288	5807
257.44415	5871
257.46539	5876
257.48666	5868
257.5079	5862
257.52917	5833
257.55042	5874
257.57169	5903
257.59293	5968
257.6142	5990
257.63544	5981
257.65668	6000
257.67795	6036
257.69919	6070
257.72046	6061
257.7417	6064
257.76297	6052
257.78421	6035
257.80545	6051
257.82672	6030
257.84796	6044
257.86923	6064
257.89047	6084
257.91171	6012
257.93298	6044
257.95422	6025
257.97546	6078
257.99673	6084
258.01797	6088
258.03922	6071
258.06049	6067
258.08173	6126
258.10297	6107
258.12424	6139
258.14548	6232
258.16672	6214
258.18799	6196
258.20923	6208
258.23047	6192
258.25171	6199
258.27298	6207
258.29422	6250
258.31546	6184
258.3367	6214
258.35797	6220
258.37921	6283
258.40045	6294
258.42169	6327
258.44296	6341
258.4642	6271
258.48544	6263
258.50668	6262
258.52792	6233
258.54919	6287
258.57043	6331
258.59167	6387
258.61292	6375
258.63416	6379
258.6554	6350
258.67667	6371
258.69791	6366
258.71915	6395
258.74039	6403
258.76163	6460
258.78287	6445
258.80411	6456
258.82538	6454
258.84662	6527
258.86786	6543
258.8891	6516
258.91034	6569
258.93158	6621
258.95282	6577
258.97406	6569
258.9953	6580
259.01654	6598
259.03778	6635
259.05902	6617
259.08026	6649
259.1015	6680
259.12274	6749
259.14398	6777
259.16522	6743
259.18646	6739
259.2077	6797
259.22894	6783
259.25018	6765
259.27142	6796
259.29266	6851
259.3139	6845
259.33514	6816
259.35638	6770
259.37762	6784
259.39886	6822
259.4201	6890
259.44135	6923
259.46259	6894
259.48383	6895
259.50507	6906
259.52631	6939
259.54755	6874
259.56879	6945
259.59	6984
259.61124	7011
259.63248	6993
259.65372	7029
259.67496	6960
259.6962	6979
259.71744	6998
259.73865	7003
259.75989	7041
259.78113	7047
259.80237	7103
259.82361	7104
259.84485	7122
259.86606	7088
259.8873	7073
259.90854	7051
259.92978	6987
259.95102	7008
259.97223	7019
259.99347	6970
260.01471	6971
260.03595	7030
260.05716	7036
260.0784	7066
260.09964	7050
260.12088	7070
260.14209	7085
260.16333	7114
260.18457	7139
260.20581	7203
260.22702	7326
260.24826	7265
260.2695	7292
260.29071	7310
260.31195	7334
260.33319	7375
260.3544	7366
260.37564	7396
260.39688	7491
260.41809	7438
260.43933	7406
260.46057	7352
260.48178	7367
260.50302	7381
260.52423	7374
260.54547	7427
260.56671	7485
260.58792	7476
260.60916	7500
260.63037	7463
260.65161	7486
260.67285	7519
260.69406	7558
260.7153	7551
260.73651	7588
260.75775	7657
260.77896	7611
260.8002	7629
260.82141	7644
260.84265	7595
260.86389	7627
260.8851	7683
260.90634	7705
260.92755	7641
260.94879	7617
260.97	7658
260.99121	7693
261.01245	7705
261.03366	7742
261.0549	7645
261.07611	7673
261.09735	7692
261.11856	7688
261.1398	7697
261.16101	7719
261.18225	7719
261.20346	7781
261.22467	7845
261.24591	7863
261.26712	7854
261.28836	7810
261.30957	7779
261.33078	7767
261.35202	7781
261.37323	7756
261.39444	7782
261.41568	7824
261.43689	7787
261.4581	7806
261.47934	7833
261.50055	7885
261.52176	7882
261.543	7867
261.56421	7901
261.58542	7827
261.60666	7864
261.62787	7831
261.64908	7866
261.67032	7889
261.69153	7924
261.71274	7893
261.73395	7859
261.75519	7923
261.7764	7983
261.79761	7962
261.81882	7965
261.84006	7989
261.86127	8016
261.88248	8032
261.90369	8125
261.9249	8117
261.94614	8125
261.96735	8106
261.98856	8132
262.00977	8177
262.03098	8191
262.05222	8153
262.07343	8184
262.09464	8203
262.11584	8237
262.13705	8236
262.15826	8265
262.17947	8292
262.20071	8330
262.22192	8226
262.24313	8266
262.26434	8233
262.28555	8242
262.30676	8234
262.32797	8266
262.34918	8245
262.37039	8248
262.3916	8284
262.41281	8327
262.43402	8300
262.45523	8315
262.47647	8378
262.49768	8386
262.51889	8406
262.5401	8457
262.56131	8472
262.58252	8513
262.60373	8486
262.62494	8555
262.64615	8431
262.66736	8525
262.68857	8523
262.70978	8480
262.73099	8444
262.75217	8469
262.77338	8503
262.79459	8460
262.8158	8403
262.83701	8484
262.85822	8537
262.87943	8509
262.90063	8619
262.92184	8613
262.94305	8597
262.96426	8588
262.98547	8592
263.00665	8579
263.02786	8607
263.04907	8639
263.07028	8624
263.09149	8598
263.1127	8575
263.13391	8553
263.15509	8596
263.1763	8665
263.19751	8748
263.21872	8770
263.23993	8732
263.26114	8772
263.28232	8743
263.30353	8697
263.32474	8734
263.34595	8748
263.36713	8793
263.38834	8866
263.40955	8787
263.43076	8807
263.45193	8902
263.47314	8946
263.49435	8925
263.51556	8984
263.53674	8908
263.55795	8935
263.57916	8878
263.60034	8904
263.62155	8955
263.64276	8961
263.66397	8936
263.68515	8898
263.70636	8903
263.72757	8945
263.74875	8976
263.76996	9028
263.79117	9027
263.81235	9028
263.83356	9026
263.85474	9132
263.87595	9125
263.89716	9166
263.91833	9150
263.93954	9174
263.96072	9168
263.98193	9167
264.00314	9111
264.02432	9160
264.04553	9145
264.06671	9179
264.08792	9155
264.1091	9224
264.13031	9231
264.15149	9237
264.1727	9335
264.19388	9334
264.21509	9342
264.2363	9318
264.25748	9278
264.27869	9203
264.29987	9264
264.32104	9361
264.34225	9377
264.36343	9401
264.38464	9441
264.40582	9370
264.42703	9328
264.44821	9367
264.46942	9401
264.4906	9404
264.51181	9488
264.53299	9538
264.55417	9541
264.57538	9523
264.59656	9513
264.61777	9586
264.63895	9645
264.66013	9657
264.68134	9682
264.70251	9678
264.72369	9723
264.7449	9700
264.76608	9639
264.78726	9651
264.80847	9702
264.82965	9750
264.85083	9770
264.87204	9811
264.89322	9872
264.9144	9944
264.93561	9914
264.95679	9967
264.97797	9953
264.99915	10001
265.02036	9892
265.04153	9934
265.06271	10042
265.08389	10090
265.1051	10026
265.12628	9985
265.14746	9989
265.16864	9987
265.18985	10049
265.21103	10132
265.23221	10131
265.25339	10037
265.27457	10031
265.29578	10104
265.31696	10133
265.33813	10105
265.35931	10106
265.38049	10128
265.40167	10156
265.42285	10118
265.44406	10091
265.46524	10063
265.48642	10084
265.5076	10147
265.52878	10167
265.54996	10256
265.57114	10251
265.59232	10288
265.61349	10256
265.6347	10225
265.65588	10229
265.67706	10165
265.69824	10180
265.71942	10068
265.7406	10079
265.76178	10079
265.78296	10061
265.80414	10131
265.82532	10156
265.8465	10203
265.86768	10123
265.88885	10185
265.91003	10154
265.93121	10200
265.95239	10267
265.97357	10348
265.99475	10471
266.01593	10459
266.03711	10444
266.05829	10453
266.07947	10460
266.10065	10464
266.1218	10450
266.14297	10486
266.16415	10557
266.18533	10543
266.20651	10467
266.22769	10414
266.24887	10409
266.27005	10362
266.29123	10445
266.31238	10566
266.33356	10632
266.35474	10730
266.37592	10699
266.39709	10634
266.41827	10665
266.43945	10680
266.4606	10761
266.48178	10814
266.50296	10914
266.52414	10905
266.54532	10896
266.56647	10882
266.58765	10922
266.60883	10878
266.63	10912
266.65115	10916
266.67233	10931
266.69351	10933
266.71469	10872
266.73584	10865
266.75702	10822
266.7782	10848
266.79938	10818
266.82053	10813
266.84171	10890
266.86288	10824
266.88403	10866
266.90521	10844
266.92639	10916
266.94754	10928
266.96872	10970
266.9899	10989
267.01105	11069
267.03223	11025
267.05341	11063
267.07455	11046
267.09573	10985
267.11688	10905
267.13806	10966
267.15924	10962
267.18039	10995
267.20157	10772
267.22272	10836
267.2439	10852
267.26505	10851
267.28622	10896
267.3074	10835
267.32855	10830
267.34973	10838
267.37088	10907
267.39206	10970
267.41321	11035
267.43439	11139
267.45554	11180
267.47672	11136
267.49786	11161
267.51904	11083
267.54019	11106
267.56137	11143
267.58252	11108
267.6037	11180
267.62485	11200
267.646	11133
267.66718	11104
267.68832	11065
267.7095	11060
267.73065	11075
267.75183	11269
267.77298	11325
267.79413	11366
267.81531	11255
267.83646	11191
267.85764	11170
267.87878	11244
267.89993	11228
267.92111	11275
267.94226	11353
267.96341	11413
267.98459	11425
268.00574	11374
268.02689	11363
268.04807	11355
268.06921	11399
268.09036	11355
268.11154	11366
268.13269	11412
268.15384	11338
268.17499	11369
268.19617	11402
268.21732	11381
268.23846	11386
268.25961	11421
268.28079	11453
268.30194	11417
268.32309	11369
268.34424	11431
268.36542	11463
268.38657	11526
268.40771	11573
268.42886	11578
268.45001	11678
268.47119	11679
268.49234	11684
268.51349	11720
268.53464	11667
268.55579	11580
268.57693	11591
268.59808	11591
268.61926	11669
268.64041	11728
268.66156	11783
268.68271	11763
268.70386	11791
268.72501	11794
268.74615	11712
268.7673	11789
268.78845	11826
268.8096	11802
268.83078	11863
268.85193	11874
268.87308	11895
268.89423	11856
268.91537	11864
268.93652	11951
268.95767	12060
268.97882	12104
268.99997	12046
269.02112	12097
269.04227	12046
269.06342	12081
269.08456	12139
269.10571	12163
269.12686	12220
269.14801	12256
269.16916	12239
269.19031	12294
269.21143	12320
269.23257	12302
269.25372	12293
269.27487	12327
269.29602	12345
269.31717	12287
269.33832	12271
269.35947	12270
269.38062	12305
269.40176	12243
269.42291	12132
269.44403	12135
269.46518	12160
269.48633	12195
269.50748	12254
269.52863	12285
269.54977	12257
269.57089	12213
269.59204	12270
269.61319	12352
269.63434	12298
269.65549	12313
269.67661	12377
269.69775	12459
269.7189	12441
269.74005	12416
269.7612	12425
269.78232	12490
269.80347	12466
269.82462	12380
269.84576	12396
269.86688	12397
269.88803	12454
269.90918	12481
269.9303	12430
269.95145	12499
269.9726	12473
269.99371	12356
270.01486	12307
270.03601	12236
270.05716	12363
270.07828	12334
270.09943	12423
270.12054	12423
270.14169	12408
270.16284	12370
270.18396	12380
270.20511	12384
270.22626	12400
270.24738	12445
270.26852	12469
270.28964	12622
270.31079	12596
270.33194	12553
270.35306	12602
270.37421	12641
270.39532	12671
270.41647	12666
270.43759	12722
270.45874	12722
270.47986	12746
270.50101	12636
270.52213	12565
270.54327	12697
270.56439	12789
270.58554	12748
270.60666	12743
270.62781	12897
270.64893	12988
270.67007	12994
270.69119	12930
270.71234	12950
270.73346	12938
270.75461	13005
270.77573	13066
270.79684	13153
270.81799	13170
270.83911	13130
270.86026	13053
270.88138	13051
270.9025	13097
270.92365	13112
270.94476	13159
270.96591	13263
270.98703	13238
271.00815	13166
271.0293	13075
271.05042	13183
271.07153	13150
271.09268	13176
271.1138	13168
271.13492	13154
271.15607	13207
271.17719	13159
271.1983	13131
271.21942	13114
271.24057	13173
271.26169	13219
271.28281	13281
271.30396	13342
271.32507	13378
271.34619	13341
271.36731	13290
271.38843	13267
271.40958	13189
271.43069	13166
271.45181	13035
271.47293	13088
271.49408	13050
271.5152	13002
271.53632	13024
271.55743	13160
271.57855	13192
271.59967	13123
271.62082	13150
271.64194	13101
271.66306	13174
271.68417	13158
271.70529	13335
271.72641	13476
271.74753	13524
271.76865	13472
271.78979	13492
271.81091	13577
271.83203	13576
271.85315	13546
271.87427	13532
271.89539	13498
271.9165	13521
271.93762	13493
271.95874	13468
271.97986	13444
272.00098	13437
272.02209	13381
272.04321	13452
272.06433	13600
272.08545	13690
272.10657	13812
272.12769	13680
272.1488	13629
272.16992	13674
272.19104	13753
272.21216	13776
272.23328	13860
272.25439	13927
272.27551	14036
272.29663	13993
272.31775	13919
272.33884	13894
272.35995	13851
272.38107	13803
272.40219	13904
272.42331	13930
272.44443	13902
272.46555	13866
272.48666	13913
272.50778	13944
272.52887	13960
272.54999	13944
272.57111	13766
272.59222	13804
272.61334	13741
272.63446	13861
272.65555	13761
272.67667	13786
272.69778	13933
272.7189	14011
272.73999	14065
272.76111	14017
272.78223	14111
272.80334	14080
272.82446	14003
272.84555	14014
272.86667	14020
272.88779	14016
272.90887	14021
272.92999	13960
272.95111	13845
272.97223	13920
272.99332	13918
273.01443	13885
273.03555	13899
273.05664	13866
273.07776	13874
273.09888	13850
273.11996	13871
273.14108	13918
273.1622	14025
273.18329	14156
273.20441	14106
273.22549	14040
273.24661	14159
273.26773	14067
273.28882	14041
273.30994	14078
273.33102	14077
273.35214	14053
273.37323	14062
273.39435	14039
273.41547	13989
273.43655	13904
273.45767	13972
273.47876	14004
273.49988	14203
273.52097	14257
273.54208	14228
273.56317	14173
273.58429	14073
273.60538	14201
273.6265	14281
273.64758	14398
273.6687	14462
273.68979	14498
273.71091	14523
273.73199	14404
273.75308	14523
273.7742	14543
273.79529	14590
273.81641	14624
273.83749	14662
273.85858	14613
273.8797	14550
273.90079	14488
273.92191	14581
273.94299	14553
273.96408	14562
273.9852	14490
274.00629	14531
274.02737	14586
274.04849	14534
274.06958	14631
274.09067	14664
274.11179	14734
274.13287	14756
274.15396	14815
274.17508	14940
274.19617	14924
274.21725	14931
274.23834	15026
274.25946	14986
274.28055	14938
274.30164	14892
274.32272	14877
274.34384	14952
274.36493	14900
274.38602	14812
274.4071	14991
274.42822	14967
274.44931	14945
274.4704	14956
274.49149	14843
274.51257	14840
274.53366	14836
274.55478	14864
274.57587	14910
274.59695	14875
274.61804	14843
274.63913	14790
274.66022	14787
274.6813	15021
274.70242	15070
274.72351	14996
274.7446	15017
274.76569	15062
274.78677	15030
274.80786	14997
274.82895	15064
274.85004	15127
274.87112	15294
274.89221	15209
274.9133	15228
274.93439	15306
274.95547	15422
274.97656	15472
274.99765	15461
275.01874	15483
275.03983	15468
275.06091	15551
275.082	15442
275.10309	15564
275.12418	15539
275.14526	15574
275.16635	15442
275.18744	15428
275.20853	15355
275.22961	15428
275.2507	15526
275.27179	15634
275.29288	15540
275.31396	15454
275.33502	15561
275.35611	15601
275.3772	15586
275.39828	15591
275.41937	15775
275.44046	15709
275.46155	15720
275.4826	15627
275.50369	15797
275.52478	15702
275.54587	15696
275.56696	15637
275.58804	15617
275.6091	15766
275.63019	15816
275.65128	15736
275.67236	15696
275.69345	15658
275.71451	15595
275.7356	15529
275.75668	15544
275.77777	15501
275.79883	15527
275.81992	15454
275.841	15564
275.86206	15578
275.88315	15556
275.90424	15581
275.92529	15582
275.94638	15557
275.96747	15537
275.98853	15604
276.00961	15738
276.0307	15757
276.05176	15751
276.07285	15717
276.09393	15739
276.11499	15865
276.13608	15951
276.15717	15983
276.17822	15970
276.19931	15949
276.22037	15922
276.24146	15843
276.26251	15872
276.2836	16009
276.30469	16107
276.32574	16137
276.34683	16260
276.36789	16427
276.38898	16493
276.41003	16399
276.43112	16405
276.45218	16345
276.47327	16276
276.49432	16243
276.51541	16309
276.53647	16391
276.55756	16446
276.57861	16439
276.5997	16434
276.62076	16490
276.64182	16440
276.6629	16458
276.68396	16502
276.70505	16630
276.7261	16541
276.74719	16499
276.76825	16482
276.78931	16583
276.81039	16656
276.83145	16659
276.85251	16627
276.8736	16746
276.89465	16662
276.91574	16592
276.9368	16532
276.95786	16638
276.97891	16684
277	16785
277.02106	16761
277.04211	16852
277.0632	16938
277.08426	16992
277.10532	17051
277.1264	17091
277.14746	17048
277.16852	17004
277.18958	16988
277.21066	17007
277.23172	16965
277.25278	16922
277.27383	17088
277.29489	17090
277.31598	17143
277.33704	17116
277.35809	17040
277.37915	17114
277.40021	17117
277.42126	17211
277.44235	17471
277.46341	17649
277.48447	17658
277.50552	17552
277.52658	17580
277.54764	17599
277.5687	17621
277.58978	17601
277.61084	17610
277.6319	17647
277.65295	17638
277.67401	17608
277.69507	17506
277.71613	17471
277.73718	17409
277.75824	17547
277.7793	17749
277.80035	17845
277.82141	17973
277.84247	17811
277.86353	17809
277.88458	17802
277.90564	17987
277.9267	18049
277.94775	18181
277.96881	18297
277.98987	18358
278.01093	18316
278.03198	18283
278.05304	18373
278.0741	18370
278.09515	18371
278.11621	18462
278.13727	18414
278.15833	18384
278.17935	18332
278.20041	18275
278.22147	18276
278.24252	18254
278.26358	18280
278.28464	18281
278.30569	18300
278.32672	18203
278.34778	18214
278.36884	18205
278.38989	18370
278.41095	18483
278.43201	18482
278.45303	18705
278.47409	18756
278.49515	18703
278.5162	18655
278.53723	18635
278.55829	18571
278.57935	18464
278.6004	18355
278.62143	18312
278.64249	18322
278.66354	18147
278.6846	18094
278.70563	18120
278.72668	18193
278.74774	18311
278.76877	18278
278.78983	18287
278.81088	18317
278.83191	18314
278.85297	18403
278.87402	18382
278.89505	18633
278.91611	18734
278.93716	18656
278.95819	18664
278.97925	18774
279.00027	18811
279.02133	18773
279.04239	18821
279.06342	18837
279.08447	18774
279.1055	18710
279.12656	18703
279.14758	18635
279.16864	18712
279.1897	18750
279.21072	19031
279.23178	19120
279.25281	19182
279.27386	19088
279.29489	19086
279.31595	19065
279.33698	19127
279.35803	19261
279.37906	19394
279.40009	19519
279.42114	19674
279.44217	19494
279.46323	19487
279.48425	19546
279.50531	19620
279.52634	19645
279.54736	19748
279.56842	19730
279.58945	19665
279.6105	19642
279.63153	19733
279.65256	19715
279.67361	19719
279.69464	19627
279.71567	19545
279.73672	19540
279.75775	19560
279.77878	19626
279.79984	19748
279.82086	19764
279.84189	19846
279.86295	19904
279.88397	20064
279.905	20061
279.92603	20096
279.94708	20118
279.96811	20200
279.98914	20360
280.01016	20249
280.03122	20283
280.05225	20328
280.07327	20450
280.0943	20395
280.11536	20307
280.13638	20459
280.15741	20480
280.17844	20505
280.19946	20358
280.22049	20268
280.24155	20270
280.26257	20263
280.2836	20384
280.30463	20335
280.32565	20326
280.34668	20323
280.36771	20234
280.38873	20355
280.40979	20530
280.43082	20533
280.45184	20507
280.47287	20581
280.4939	20538
280.51492	20492
280.53595	20596
280.55698	20605
280.578	20843
280.59903	20905
280.62006	20779
280.64108	20890
280.66211	20969
280.68314	21012
280.70416	20994
280.72519	21072
280.74622	21079
280.76724	21048
280.78827	21032
280.8093	21232
280.83032	21251
280.85135	21179
280.87238	21106
280.8934	21028
280.9144	20900
280.93542	20971
280.95645	21033
280.97748	21257
280.9985	21383
281.01953	21285
281.04056	21185
281.06158	21371
281.08258	21436
281.10361	21372
281.12463	21424
281.14566	21506
281.16669	21543
281.18771	21508
281.20871	21532
281.22974	21538
281.25076	21630
281.27179	21554
281.29279	21382
281.31381	21366
281.33484	21477
281.35587	21640
281.37686	21657
281.39789	21666
281.41891	21585
281.43994	21459
281.46094	21254
281.48196	21239
281.50299	21207
281.52399	21334
281.54501	21454
281.56604	21404
281.58704	21455
281.60806	21424
281.62909	21354
281.65009	21282
281.67111	21324
281.69214	21354
281.71313	21529
281.73416	21716
281.75516	21775
281.77618	21663
281.79721	21726
281.81821	21825
281.83923	21855
281.86023	21927
281.88126	21868
281.90225	22005
281.92328	21920
281.94427	21813
281.9653	21767
281.98633	21870
282.00732	21936
282.02835	22032
282.04935	21983
282.07034	22178
282.09137	22402
282.11237	22526
282.13339	22401
282.15439	22329
282.17542	22363
282.19641	22471
282.21744	22354
282.23843	22549
282.25943	22600
282.28046	22678
282.30145	22616
282.32248	22576
282.34348	22451
282.36447	22587
282.3855	22628
282.40649	22786
282.42752	22768
282.44852	22576
282.46951	22623
282.49054	22645
282.51154	22736
282.53253	22720
282.55353	22708
282.57455	22687
282.59555	22649
282.61655	22615
282.63757	22534
282.65857	22525
282.67957	22593
282.70056	22608
282.72159	22772
282.74258	22904
282.76358	22994
282.78458	23005
282.80557	22966
282.8266	23023
282.8476	22954
282.86859	22876
282.88959	22750
282.91058	22794
282.93161	22700
282.95261	22659
282.9736	22739
282.9946	22920
283.01559	22907
283.03659	22850
283.05759	22853
283.07858	22809
283.09961	22857
283.12061	22922
283.1416	23166
283.1626	23359
283.18359	23596
283.20459	23572
283.22559	23546
283.24658	23554
283.26758	23650
283.28857	23581
283.30957	23541
283.33057	23535
283.35156	23653
283.37256	23660
283.39355	23500
283.41455	23354
283.43555	23293
283.45654	23279
283.47754	23464
283.49854	23715
283.51953	23882
283.54053	23987
283.56152	23921
283.58252	23789
283.60352	23837
283.62451	23915
283.64548	24153
283.66647	24325
283.68747	24509
283.70847	24507
283.72946	24437
283.75046	24552
283.77145	24529
283.79242	24460
283.81342	24446
283.83441	24524
283.85541	24573
283.8764	24566
283.8974	24399
283.91837	24411
283.93936	24412
283.96036	24468
283.98135	24355
284.00232	24323
284.02332	24474
284.04431	24330
284.06531	24373
284.08627	24308
284.10727	24437
284.12827	24639
284.14926	24799
284.17023	24876
284.19122	24977
284.21222	24973
284.23318	24966
284.25418	24884
284.27518	24872
284.29614	24848
284.31714	24831
284.33813	24799
284.3591	24777
284.3801	24609
284.40106	24637
284.42206	24673
284.44305	24702
284.46402	24764
284.48502	24790
284.50598	24855
284.52698	24762
284.54794	24674
284.56894	24815
284.58994	24947
284.6109	25229
284.6319	25200
284.65286	25261
284.67386	25338
284.69482	25296
284.71582	25238
284.73679	25274
284.75778	25380
284.77875	25426
284.79971	25300
284.82071	25261
284.84167	25186
284.86267	25106
284.88364	25055
284.90463	25364
284.9256	25574
284.94656	25572
284.96756	25630
284.98853	25495
285.00952	25418
285.03049	25520
285.05145	25723
285.07245	25811
285.09341	26037
285.11438	26011
285.13538	26080
285.15634	26035
285.17731	26028
285.1983	26102
285.21927	26205
285.24023	26247
285.26123	26268
285.2822	26226
285.30316	26100
285.32413	26123
285.34512	26289
285.36609	26360
285.38705	26250
285.40802	26074
285.42902	25952
285.44998	26079
285.47095	26009
285.49191	26186
285.51288	26355
285.53387	26373
285.55484	26496
285.57581	26647
285.59677	26731
285.61774	26800
285.6387	26667
285.65967	26750
285.68066	26707
285.70163	26878
285.7226	26857
285.74356	26899
285.76453	26880
285.78549	26851
285.80646	26845
285.82742	27029
285.84839	27161
285.86935	27130
285.89032	26852
285.91129	26666
285.93225	26622
285.95322	26641
285.97418	26613
285.99515	26581
286.01611	26611
286.03708	26468
286.05804	26307
286.07901	26407
286.09998	26571
286.12094	26763
286.14191	26764
286.16287	26885
286.18384	26986
286.2048	26948
286.22577	26888
286.24673	26909
286.2677	26919
286.28867	27120
286.30963	27097
286.33057	27127
286.35153	27267
286.3725	27540
286.39346	27695
286.41443	27578
286.43539	27582
286.45633	27550
286.47729	27501
286.49826	27404
286.51923	27611
286.54019	27721
286.56113	27702
286.58209	27582
286.60306	27516
286.62402	27558
286.64499	27571
286.66592	27637
286.68689	27857
286.70786	27973
286.72879	27838
286.74976	27844
286.77072	27957
286.79169	27931
286.81262	28051
286.83359	28062
286.85455	28237
286.87549	28229
286.89645	28176
286.91742	28181
286.93835	28061
286.95932	28210
286.98026	28131
287.00122	28125
287.02219	28245
287.04312	28366
287.06409	28180
287.08502	28287
287.10599	28361
287.12695	28203
287.14789	27932
287.16885	27674
287.18979	27555
287.21075	27588
287.23169	27558
287.25266	27660
287.27359	27692
287.29456	27742
287.31549	27692
287.33646	27701
287.35739	27697
287.37836	27811
287.39929	27722
287.42026	27964
287.44119	28293
287.46213	28240
287.48309	28257
287.50403	28160
287.52499	28312
287.54593	28427
287.56689	28309
287.58783	28448
287.60876	28522
287.62973	28442
287.65067	28422
287.6716	28359
287.69257	28355
287.7135	28415
287.73444	28468
287.7554	28459
287.77634	28744
287.79727	28904
287.81824	28979
287.83917	28775
287.86011	28816
287.88104	29054
287.90201	29134
287.92294	29253
287.94388	29395
287.96481	29538
287.98578	29693
288.00671	29460
288.02765	29452
288.04858	29472
288.06955	29425
288.09048	29529
288.11142	29665
288.13235	29604
288.15329	29367
288.17422	29358
288.19519	29493
288.21613	29646
288.23706	29570
288.258	29520
288.27893	29418
288.29987	29382
288.3208	29298
288.34174	29255
288.36267	29268
288.38361	29389
288.40457	29344
288.42551	29430
288.44644	29716
288.46738	29770
288.48831	29825
288.50925	29661
288.53018	29479
288.55112	29387
288.57205	29459
288.59299	29401
288.61392	29359
288.63486	29344
288.65579	29272
288.67673	29350
288.69766	29483
288.7186	29475
288.7395	29476
288.76044	29305
288.78137	29407
288.80231	29448
288.82324	29600
288.84418	29816
288.86511	30103
288.88605	30251
288.90698	30217
288.92792	30110
288.94882	30320
288.96976	30341
288.99069	30382
289.01163	30271
289.03256	30227
289.05347	30182
289.0744	30206
289.09534	30110
289.11627	30138
289.13721	30160
289.15811	30169
289.17905	30330
289.19998	30582
289.22092	30651
289.24182	30626
289.26276	30664
289.28369	30646
289.30463	30733
289.32553	30999
289.34647	31195
289.3674	31374
289.38831	31654
289.40924	31474
289.43018	31503
289.45108	31634
289.47202	31568
289.49295	31433
289.51385	31375
289.53479	31533
289.55569	31438
289.57663	31509
289.59756	31604
289.61847	31732
289.6394	31722
289.66031	31758
289.68124	31494
289.70215	31454
289.72308	31378
289.74402	31315
289.76492	31447
289.78586	31513
289.80676	31520
289.8277	31688
289.8486	32105
289.86954	32114
289.89044	32011
289.91138	32301
289.93228	32202
289.95319	32168
289.97412	32237
289.99503	32243
290.01596	32178
290.03687	32230
290.0578	32090
290.0787	31779
290.09961	31834
290.12054	31958
290.14145	31983
290.16235	31980
290.18329	32059
290.20419	32166
290.22513	31890
290.24603	32041
290.26694	32025
290.28787	32447
290.30878	32540
290.32968	32656
290.35059	32514
290.37152	32668
290.39243	32606
290.41333	32610
290.43427	32673
290.45517	32855
290.47607	32940
290.49698	32824
290.51788	32740
290.53882	32846
290.55972	32686
290.58063	32980
290.60153	33083
290.62244	33465
290.64337	33804
290.66428	33666
290.68518	33600
290.70609	33582
290.72699	33918
290.74789	34179
290.76883	34487
290.78973	34905
290.81064	35516
290.83154	35517
290.85245	35820
290.87335	36266
290.89426	36510
290.91516	36784
290.93607	36898
290.95697	36670
290.97787	36569
290.99878	36196
291.01968	36283
291.04059	36023
291.06149	35996
291.0824	35627
291.1033	35580
291.12421	35192
291.14511	35279
291.16602	35230
291.18692	35383
291.20782	35500
291.22873	35403
291.24963	35424
291.27054	35394
291.29144	35574
291.31235	35386
291.33325	35373
291.35416	35650
291.37503	35899
291.39594	35760
291.41684	35673
291.43774	35590
291.45865	35468
291.47955	35670
291.50046	35461
291.52133	35772
291.54224	35731
291.56314	35835
291.58405	35541
291.60495	35315
291.62582	35349
291.64673	35267
291.66763	35199
291.68854	35435
291.70941	35442
291.73032	35156
291.75122	35237
291.77213	35088
291.793	35194
291.8139	35539
291.83481	35658
291.85568	35517
291.87659	35708
291.89749	35740
291.91837	35503
291.93927	35529
291.96017	35236
291.98105	35691
292.00195	35683
292.02286	35771
292.04373	35965
292.06464	36065
292.08551	36179
292.10641	35959
292.12732	36043
292.14819	36041
292.1691	36018
292.18997	36042
292.21088	36145
292.23175	36406
292.25266	36526
292.27353	36263
292.29443	36144
292.31531	36159
292.33621	36189
292.35709	36316
292.37799	36493
292.39886	36749
292.41977	36442
292.44064	36557
292.46155	36564
292.48242	36687
292.5033	36447
292.5242	36704
292.54507	36589
292.56598	36794
292.58685	36626
292.60773	36603
292.62863	36654
292.64951	36851
292.67038	36700
292.69128	36648
292.71216	36569
292.73303	36798
292.75394	36542
292.77481	36486
292.79568	36569
292.81659	36384
292.83746	36307
292.85834	36007
292.87924	35953
292.90012	35790
292.92099	35757
292.94186	35889
292.96277	36052
292.98364	36022
293.00452	36034
293.02539	36113
293.04626	36274
293.06717	35966
293.08804	36275
293.10892	36449
293.12979	36517
293.15067	36852
293.17154	36725
293.19244	36454
293.21332	36609
293.23419	36751
293.25507	37045
293.27594	37093
293.29681	37029
293.31769	37221
293.33856	37097
293.35944	36786
293.38031	36965
293.40118	36828
293.42206	36831
293.44296	37036
293.46384	37141
293.48471	37606
293.50558	37858
293.52646	37717
293.54733	37592
293.56821	37676
293.58908	37693
293.60992	37975
293.6308	38145
293.65167	38291
293.67255	38373
293.69342	38331
293.71429	38431
293.73517	38162
293.75604	38203
293.77692	37980
293.79779	38404
293.81866	38492
293.83954	38091
293.86038	38170
293.88126	38145
293.90213	38144
293.923	38134
293.94388	38375
293.96475	38228
293.9856	38156
294.00647	38084
294.02734	38029
294.04822	38150
294.06909	38267
294.08994	38440
294.11081	38696
294.13168	38629
294.15256	38852
294.1734	38702
294.19427	38945
294.21515	38519
294.23599	38466
294.25687	38475
294.27774	38569
294.29861	38551
294.31946	38451
294.34033	38367
294.36121	38412
294.38205	38417
294.40292	38356
294.42377	38680
294.44464	38434
294.46552	38379
294.48636	38500
294.50723	38821
294.52808	38962
294.54895	39559
294.56982	39372
294.59067	39652
294.61154	39449
294.63239	39369
294.65326	39133
294.6741	39269
294.69498	39208
294.71582	39660
294.73669	39420
294.75754	39593
294.77841	39519
294.79926	39040
294.82013	39385
294.84097	39424
294.86185	39480
294.88269	39809
294.90356	40217
294.92441	40150
294.94525	39994
294.96613	39655
294.98697	39867
295.00784	40201
295.02869	40311
295.04953	40361
295.0704	40584
295.09125	40622
295.11209	40485
295.13297	40713
295.15381	40783
295.17465	40995
295.19553	40951
295.21637	40842
295.23721	41156
295.25809	40998
295.27893	41103
295.29977	40892
295.32062	41016
295.34149	41105
295.36234	40823
295.38318	40869
295.40402	41138
295.42487	41101
295.44574	41381
295.46658	41116
295.48743	41151
295.50827	41641
295.52911	41615
295.54999	41732
295.57083	41813
295.59167	42057
295.61252	41966
295.63336	41683
295.65421	41749
295.67505	41756
295.69589	41482
295.71677	41490
295.73761	41561
295.75845	41669
295.7793	41467
295.80014	41481
295.82098	41662
295.84183	41961
295.86267	41678
295.88351	42328
295.90436	41806
295.9252	42306
295.94604	42120
295.96689	42548
295.98773	42630
296.00858	42748
296.02942	42908
296.05026	43069
296.07111	42784
296.09195	43173
296.11279	43042
296.13361	43097
296.15445	43148
296.17529	43000
296.19614	43055
296.21698	43212
296.23782	43231
296.25867	43402
296.27951	43439
296.30032	43802
296.32117	43920
296.34201	43933
296.36285	43799
296.3837	43898
296.40454	43769
296.42535	43935
296.4462	43916
296.46704	43773
296.48788	44024
296.5087	44337
296.52954	44444
296.55038	44381
296.57123	44513
296.59204	44848
296.61288	45017
296.63373	44766
296.65454	45016
296.67538	44663
296.69623	44723
296.71704	44938
296.73788	44874
296.75873	44668
296.77954	45026
296.80038	44832
296.82123	45053
296.84204	45183
296.86288	45064
296.8837	45410
296.90454	45650
296.92538	45547
296.9462	45744
296.96704	45421
296.98785	46053
297.0087	46177
297.02951	45898
297.05035	46226
297.07117	46057
297.09201	45998
297.11282	45952
297.13367	46192
297.15448	46156
297.17532	46117
297.19614	45990
297.21698	46152
297.23779	46330
297.25864	46179
297.27945	45838
297.30029	45837
297.32111	45744
297.34192	45855
297.36276	45922
297.38358	45786
297.40439	45679
297.42523	45952
297.44604	46078
297.46689	45807
297.4877	46023
297.50851	46070
297.52936	45831
297.55017	46096
297.57098	45897
297.5918	46105
297.61264	45929
297.63345	46236
297.65427	46038
297.67511	46149
297.69592	46109
297.71674	46019
297.73755	46164
297.75836	46130
297.77921	46479
297.80002	46280
297.82083	46594
297.84164	46611
297.86246	46587
297.8833	46541
297.90411	46640
297.92493	46450
297.94574	46540
297.96655	46482
297.98737	46718
298.00818	46795
298.02902	46773
298.04984	46788
298.07065	46823
298.09146	46594
298.11227	46774
298.13309	46619
298.1539	46742
298.17471	46879
298.19553	46495
298.21634	46824
298.23715	46541
298.25797	46850
298.27878	46925
298.29959	46849
298.3204	46905
298.34122	46961
298.36203	46805
298.38284	46557
298.40366	45793
298.42447	44142
298.44528	41241
