Date and Time:                Wed May 25 13:19:52.000 2022
Software Version:             4.31.30023.0
Temperature (C):              -40
Model:                        DU940P_BU2
Data Type:                    Counts
Acquisition Mode:             Single Scan
Trigger Mode:                 Internal
Exposure Time (secs):         0.55
Readout Mode:                 Full Vertical Binning
Horizontal binning:           1
Extended Dynamic Range:       off
Horizontally flipped:         false
Vertical Shift Speed (usecs): 14.51
Pixel Readout Rate (MHz):     3
Baseline Clamp:               ON
Clock Amplitude:              Normal
Output Amplifier:             High Capacity
Serial Number:                23634
Pre-Amplifier Gain:           1.000000
Spurious Noise Filter Mode:   No Filter
Photon counted:               false
Data Averaging Filter Mode:   No Filter
SR500i:
Serial Number:                
Wavelength (nm):              262
Grating Groove Density (l/mm):2400
Grating Blaze:                BH
Output Flipper Port:          Direct
Accessory Output Port 1:      Off
Accessory Output Port 2:      Off
Accessory Output Port 3:      Off
Accessory Input Port:         On



251.94595	17513
251.95586	16715
251.96576	16818
251.97566	16808
251.98557	16824
251.99545	16775
252.00536	16685
252.01526	16720
252.02516	16913
252.03505	16872
252.04495	16846
252.05486	16778
252.06476	16860
252.07465	16812
252.08455	16830
252.09445	16749
252.10434	16845
252.11424	17062
252.12415	17165
252.13403	17031
252.14394	16971
252.15384	16924
252.16373	16945
252.17363	16922
252.18353	16805
252.19342	16773
252.20332	16882
252.21321	16888
252.22311	16832
252.23302	16818
252.2429	16932
252.25281	16938
252.2627	16954
252.2726	16985
252.28249	16954
252.29239	16886
252.30228	16862
252.31218	16922
252.32207	16891
252.33197	16878
252.34186	16823
252.35176	17005
252.36165	17099
252.37155	17257
252.38144	17109
252.39134	17075
252.40123	17065
252.41112	17078
252.42102	17216
252.43091	17273
252.44081	17409
252.4507	17536
252.46059	17493
252.47049	17519
252.48038	17537
252.49028	17461
252.50017	17485
252.51006	17617
252.51996	17666
252.52985	17593
252.53973	17545
252.54962	17528
252.55952	17547
252.56941	17606
252.5793	17475
252.58919	17472
252.59909	17491
252.60898	17479
252.61887	17482
252.62875	17563
252.63866	17630
252.64854	17545
252.65843	17716
252.66832	17775
252.67821	17839
252.68811	17785
252.698	17777
252.70789	17812
252.71777	17756
252.72766	17766
252.73755	17736
252.74744	17748
252.75734	17746
252.76723	17681
252.77711	17612
252.787	17674
252.79689	17751
252.80678	17690
252.81667	17694
252.82655	17684
252.83644	17734
252.84633	17705
252.85622	17680
252.8661	17759
252.87599	17937
252.88588	17970
252.89577	17996
252.90565	18001
252.91554	17953
252.92543	17904
252.93532	17919
252.94521	17910
252.95509	17970
252.96498	18009
252.97487	17921
252.98476	17891
252.99463	17856
253.00452	17834
253.0144	17950
253.02429	18002
253.03418	18191
253.04407	18249
253.05396	18296
253.06383	18209
253.07372	18142
253.0836	18293
253.09349	18322
253.10338	18461
253.11325	18557
253.12314	18594
253.13303	18496
253.14291	18509
253.15279	18678
253.16267	18606
253.17256	18560
253.18245	18596
253.19232	18563
253.20221	18630
253.2121	18529
253.22197	18600
253.23186	18630
253.24174	18606
253.25163	18464
253.26151	18479
253.27139	18459
253.28127	18594
253.29115	18511
253.30104	18513
253.31091	18549
253.3208	18473
253.33067	18618
253.34056	18760
253.35045	18777
253.36032	18866
253.37021	18851
253.38008	18824
253.38997	18754
253.39984	18714
253.40973	18642
253.4196	18774
253.42949	18883
253.43936	18696
253.44925	18657
253.45912	18717
253.46901	18771
253.47888	18832
253.48877	18806
253.49864	18893
253.50853	18839
253.5184	18757
253.52827	18726
253.53816	18800
253.54803	18869
253.55792	18930
253.56779	19006
253.57767	19104
253.58755	19091
253.59743	18961
253.6073	18931
253.61719	18944
253.62706	19041
253.63693	19167
253.64682	19127
253.65669	19195
253.66656	19143
253.67644	19038
253.68633	19087
253.6962	19268
253.70607	19381
253.71594	19280
253.72583	19366
253.7357	19286
253.74557	19264
253.75545	19326
253.76532	19333
253.77521	19517
253.78508	19629
253.79495	19637
253.80482	19605
253.8147	19546
253.82457	19749
253.83446	19823
253.84433	19795
253.8542	19851
253.86407	19822
253.87395	19842
253.88382	19733
253.89369	19829
253.90356	19893
253.91344	19860
253.92331	19779
253.93318	19663
253.94305	19735
253.95293	19730
253.9628	19827
253.97267	20004
253.98254	19860
253.99242	19711
254.00229	19891
254.01216	19966
254.02203	20064
254.03191	20000
254.04178	20097
254.05165	20143
254.06152	20157
254.0714	20078
254.08127	20047
254.09114	19947
254.10101	20048
254.11087	19991
254.12074	19998
254.13062	20020
254.14049	20186
254.15036	20252
254.16023	20264
254.17009	20239
254.17996	20165
254.18983	20109
254.19971	19904
254.20958	19951
254.21944	19919
254.22931	19947
254.23918	20018
254.24905	20215
254.25891	20259
254.26878	20160
254.27866	20073
254.28853	20128
254.29839	20107
254.30826	20186
254.31813	20338
254.32799	20435
254.33786	20563
254.34773	20516
254.35759	20532
254.36746	20637
254.37733	20712
254.38719	20757
254.39706	20810
254.40692	20779
254.41679	20806
254.42667	20679
254.43652	20638
254.4464	20597
254.45625	20641
254.46613	20664
254.47598	20595
254.48586	20770
254.49571	20893
254.50558	20903
254.51544	20901
254.52531	20994
254.53517	20943
254.54504	21070
254.5549	21103
254.56477	21234
254.57463	21182
254.5845	21165
254.59436	21027
254.60423	21116
254.61409	20968
254.62395	21046
254.63382	21074
254.64368	21221
254.65353	21184
254.66341	21243
254.67326	21148
254.68314	21331
254.69299	21306
254.70285	21301
254.71272	21392
254.72258	21328
254.73244	21459
254.74229	21423
254.75217	21288
254.76202	21225
254.77188	21384
254.78174	21335
254.79161	21436
254.80147	21552
254.81133	21660
254.82118	21604
254.83105	21381
254.84091	21282
254.85077	21249
254.86063	21402
254.87048	21325
254.88036	21302
254.89021	21463
254.90007	21507
254.90993	21353
254.91978	21378
254.92964	21510
254.9395	21497
254.94936	21553
254.95921	21520
254.96909	21506
254.97894	21504
254.9888	21471
254.99866	21349
255.00851	21383
255.01837	21273
255.02823	21250
255.03809	21354
255.04794	21588
255.0578	21623
255.06766	21546
255.07751	21519
255.08737	21539
255.09723	21539
255.10709	21691
255.11694	21848
255.1268	22025
255.13664	22005
255.1465	21907
255.15636	21972
255.16621	21915
255.17607	21945
255.18593	21954
255.19579	22003
255.20564	22049
255.21548	21926
255.22534	21956
255.2352	21892
255.24506	21900
255.25491	21870
255.26477	21779
255.27461	21916
255.28447	21903
255.29433	21786
255.30418	21745
255.31403	21912
255.32388	21886
255.33374	22008
255.3436	22091
255.35344	22159
255.3633	22184
255.37315	22137
255.383	22166
255.39285	22076
255.40271	22075
255.41255	22077
255.42241	22087
255.43227	22031
255.44211	21967
255.45197	21941
255.46182	21714
255.47166	21901
255.48152	21836
255.49136	21787
255.50122	21684
255.51108	21698
255.52092	21652
255.53078	21620
255.54062	21510
255.55048	21641
255.56032	21744
255.57018	21903
255.58002	21848
255.58987	21915
255.59972	21827
255.60957	21751
255.61942	21576
255.62927	21622
255.63911	21652
255.64897	21651
255.65881	21745
255.66866	21522
255.67851	21604
255.68835	21575
255.69821	21592
255.70805	21741
255.7179	21877
255.72775	21990
255.73759	21959
255.74744	21913
255.75729	21879
255.76714	21891
255.77698	21924
255.78683	22046
255.79668	22240
255.80652	22343
255.81638	22206
255.82622	22240
255.83606	22366
255.8459	22461
255.85576	22348
255.8656	22353
255.87544	22350
255.88528	22398
255.89514	22363
255.90498	22270
255.91483	22303
255.92467	22273
255.93451	22270
255.94435	22301
255.95421	22117
255.96405	22242
255.97389	22338
255.98373	22324
255.99358	22284
256.00342	22264
256.01328	22441
256.0231	22575
256.03296	22595
256.04279	22584
256.05264	22628
256.06247	22647
256.07233	22607
256.08215	22536
256.09201	22579
256.10184	22669
256.11169	22655
256.12152	22553
256.13138	22599
256.1412	22589
256.15106	22545
256.16089	22656
256.17075	22736
256.18057	22830
256.19043	22884
256.20026	22868
256.21011	22762
256.21994	22792
256.22977	22948
256.23962	22996
256.24945	23068
256.25931	23012
256.26913	23127
256.27899	22916
256.28882	22886
256.29865	22964
256.3085	22960
256.31833	23046
256.32819	23224
256.33801	23235
256.34784	23282
256.3577	23055
256.36752	23091
256.37738	23280
256.38721	23398
256.39703	23386
256.40689	23378
256.41672	23391
256.42654	23436
256.4364	23373
256.44623	23445
256.45605	23471
256.46591	23627
256.47574	23796
256.48557	23662
256.49542	23709
256.50525	23871
256.51508	23937
256.52493	23945
256.53476	23876
256.54459	23849
256.55441	23711
256.56427	23756
256.5741	23839
256.58392	23934
256.59378	23833
256.60361	23713
256.61343	23629
256.62326	23677
256.63312	23693
256.64294	23798
256.65277	24041
256.6626	23938
256.67245	23936
256.68228	23750
256.69211	23989
256.70193	24030
256.71176	23995
256.72162	24081
256.73145	24124
256.74127	24081
256.7511	23997
256.76093	23944
256.77078	23955
256.78061	23981
256.79044	23912
256.80026	23956
256.81009	24012
256.81992	24135
256.82977	24198
256.8396	24208
256.84943	24229
256.85925	24225
256.86908	24025
256.87891	23834
256.88873	23812
256.89859	23709
256.90842	23740
256.91824	23813
256.92807	23915
256.9379	24162
256.94772	24043
256.95755	23982
256.96738	23880
256.9772	23777
256.98703	23853
256.99686	24015
257.00671	24196
257.01654	24325
257.02637	24319
257.03619	24271
257.04602	24390
257.05585	24475
257.06567	24566
257.0755	24544
257.08533	24601
257.09515	24584
257.10498	24469
257.11481	24425
257.12463	24481
257.13446	24530
257.14429	24617
257.15411	24645
257.16394	24692
257.17377	24871
257.18359	24900
257.19342	24809
257.20325	24827
257.21307	24864
257.2229	24976
257.23273	25019
257.24255	25154
257.25238	25240
257.26221	25242
257.27203	25056
257.28186	25063
257.29169	24936
257.30148	24910
257.31131	25073
257.32114	25232
257.33096	25281
257.34079	25172
257.35062	25162
257.36044	25187
257.37027	25285
257.3801	25264
257.38992	25143
257.39972	25109
257.40955	25104
257.41937	25152
257.4292	25105
257.43903	25104
257.44885	25142
257.45868	25181
257.46848	25132
257.4783	25213
257.48813	25383
257.49796	25358
257.50778	25202
257.51761	25145
257.5274	25127
257.53723	25042
257.54706	25057
257.55688	25137
257.56671	25120
257.57651	25079
257.58633	25062
257.59616	25173
257.60599	25343
257.61581	25410
257.62561	25337
257.63544	25304
257.64526	25136
257.65509	25244
257.66489	25260
257.67471	25399
257.68454	25295
257.69437	25296
257.70416	25196
257.71399	25317
257.72382	25561
257.73361	25640
257.74344	25659
257.75327	25557
257.76309	25549
257.77289	25601
257.78271	25673
257.79254	25742
257.80234	25930
257.81216	25803
257.82199	25759
257.83179	25967
257.84161	25829
257.85144	25810
257.86124	25735
257.87106	25840
257.88089	25895
257.89069	25923
257.90051	25948
257.91034	25943
257.92014	25976
257.92996	26011
257.93976	25988
257.94958	25837
257.95941	25816
257.96921	25703
257.97903	25742
257.98883	25695
257.99866	25671
258.00848	25826
258.01828	25894
258.02811	26115
258.0379	25999
258.04773	25911
258.05753	26087
258.06735	26113
258.07718	26236
258.08698	26223
258.0968	26244
258.1066	26261
258.11642	26151
258.12622	26189
258.13605	26182
258.14584	26313
258.15567	26255
258.16547	26124
258.17529	25982
258.18509	26015
258.19492	25858
258.20471	25830
258.21454	25944
258.22433	26115
258.23416	26296
258.24396	26469
258.25378	26338
258.26358	26311
258.27338	26316
258.2832	26259
258.293	26304
258.30283	26283
258.31262	26253
258.32245	26280
258.33224	26272
258.34204	26149
258.35187	26022
258.36166	25947
258.37149	26279
258.38129	26507
258.39108	26467
258.40091	26513
258.41071	26402
258.42053	26233
258.43033	26221
258.44012	26274
258.44995	26466
258.45975	26569
258.46954	26740
258.47937	26632
258.48917	26510
258.49896	26609
258.50879	26751
258.51859	26752
258.52838	26778
258.53821	26842
258.548	26779
258.5578	26707
258.56763	26620
258.57742	26733
258.58722	26721
258.59705	26608
258.60684	26495
258.61664	26429
258.62643	26484
258.63626	26571
258.64606	26623
258.65585	26741
258.66565	26655
258.67548	26665
258.68527	26843
258.69507	27033
258.70486	27023
258.71469	26911
258.72449	27042
258.73428	26989
258.74408	26952
258.75391	26827
258.7637	26943
258.7735	26934
258.78329	26967
258.79309	26658
258.80292	26704
258.81271	26809
258.82251	26794
258.83231	26783
258.8421	26993
258.8519	26983
258.86172	26804
258.87152	26744
258.88132	26733
258.89111	26876
258.90091	26937
258.91071	27040
258.9205	27068
258.93033	27041
258.94012	27017
258.94992	27016
258.95972	26911
258.96951	26977
258.97931	26920
258.98911	27099
258.9989	27201
259.0087	27286
259.01849	27223
259.02832	27145
259.03812	27262
259.04791	27494
259.05771	27531
259.0675	27508
259.0773	27602
259.0871	27541
259.09689	27457
259.10669	27361
259.11649	27417
259.12628	27630
259.13608	27927
259.14587	27830
259.15567	27858
259.16547	28099
259.17526	28233
259.18506	28259
259.19485	28161
259.20465	28152
259.21445	28168
259.22424	27957
259.23404	28050
259.24384	28004
259.25363	28038
259.26343	27946
259.27322	27631
259.28302	27774
259.29282	27891
259.30261	27900
259.31241	28095
259.3222	28171
259.33197	28100
259.34177	28053
259.35156	28056
259.36136	28164
259.37115	28138
259.38095	28215
259.39075	28307
259.40054	28244
259.41034	28132
259.42014	28061
259.4299	27963
259.4397	28103
259.44949	28071
259.45929	28022
259.46909	28087
259.47888	28216
259.48868	28286
259.49844	28476
259.50824	28416
259.51804	28452
259.52783	28383
259.53763	28238
259.54739	28120
259.55719	28017
259.56699	27813
259.57678	27842
259.58658	28056
259.59634	28334
259.60614	28383
259.61594	28126
259.62573	27916
259.63553	27967
259.64529	27989
259.65509	28069
259.66489	28300
259.67468	28536
259.68445	28525
259.69424	28493
259.70404	28412
259.71384	28582
259.7236	28657
259.7334	28626
259.74319	28640
259.75296	28646
259.76276	28676
259.77255	28659
259.78235	28489
259.79211	28292
259.80191	28287
259.81171	28306
259.82147	28509
259.83127	28772
259.84106	28822
259.85083	28801
259.86063	28733
259.87042	28628
259.88019	28808
259.88998	28981
259.89978	29022
259.90955	29140
259.91934	29325
259.92911	29239
259.9389	29110
259.9487	29187
259.95847	29049
259.96826	29146
259.97803	29232
259.98782	29383
259.99762	29348
260.00739	29205
260.01718	29288
260.02695	29166
260.03674	29113
260.04651	29154
260.0563	29113
260.0661	29213
260.07587	29166
260.08566	29088
260.09543	29024
260.10522	29027
260.11499	29235
260.12479	29158
260.13455	29313
260.14435	29376
260.15411	29351
260.16391	29340
260.17368	29241
260.18347	29033
260.19324	28794
260.20303	28542
260.2128	28494
260.2226	28541
260.23236	28355
260.24216	28129
260.25192	28286
260.26172	28306
260.27148	28342
260.28125	28368
260.29105	28245
260.30081	28302
260.31061	28285
260.32037	28364
260.33017	28659
260.33994	28885
260.3497	29049
260.3595	28902
260.36926	28701
260.37906	28792
260.38882	28756
260.39859	28841
260.40839	28800
260.41815	28872
260.42792	28831
260.43771	28685
260.44748	28602
260.45728	28513
260.46704	28486
260.47681	28573
260.4866	28703
260.49637	28995
260.50613	29145
260.51593	29062
260.5257	28963
260.53546	28972
260.54523	29062
260.55502	29098
260.56479	29054
260.57455	29310
260.58435	29610
260.59412	29401
260.60388	29400
260.61368	29508
260.62344	29447
260.63321	29510
260.64297	29489
260.65277	29565
260.66254	29574
260.6723	29391
260.68207	29367
260.69186	29380
260.70163	29334
260.7114	29403
260.72116	29494
260.73093	29565
260.74072	29540
260.75049	29397
260.76025	29358
260.77002	29574
260.77979	29660
260.78958	29703
260.79935	29744
260.80911	29977
260.81888	30096
260.82864	30109
260.83841	29987
260.84821	29827
260.85797	29757
260.86774	29587
260.8775	29685
260.88727	29920
260.89703	30116
260.9068	30214
260.91656	30262
260.92636	30377
260.93613	30278
260.94589	30185
260.95566	30224
260.96542	30108
260.97519	30388
260.98495	30209
260.99472	30248
261.00449	30157
261.01425	30040
261.02402	29921
261.03378	30088
261.04355	30485
261.05334	30485
261.06311	30408
261.07288	30364
261.08264	30260
261.09241	30366
261.10217	30541
261.11194	30563
261.1217	30729
261.13147	30899
261.14124	30843
261.151	30888
261.16077	30920
261.17053	30997
261.1803	30932
261.19006	30968
261.19983	31073
261.20959	31142
261.21936	30935
261.22913	31114
261.23886	31036
261.24863	31111
261.25839	30931
261.26816	30653
261.27792	30817
261.28769	30856
261.29745	30992
261.30722	31068
261.31699	31051
261.32675	30925
261.33652	31027
261.34628	31273
261.35602	31334
261.36578	31289
261.37555	31286
261.38531	31379
261.39508	31393
261.40485	31426
261.41461	31426
261.42438	31347
261.43411	31401
261.44388	31164
261.45364	30988
261.46341	31033
261.47318	31082
261.48294	31130
261.49268	31022
261.50244	31059
261.51221	30896
261.52197	30792
261.53174	30681
261.54147	30625
261.55124	30833
261.561	30815
261.57077	30860
261.58051	30768
261.59027	30828
261.60004	30725
261.6098	30667
261.61957	30675
261.6293	30650
261.63907	30636
261.64883	30613
261.65857	30784
261.66833	30777
261.6781	30736
261.68787	30635
261.6976	30871
261.70737	31026
261.71713	31007
261.72687	31033
261.73663	31029
261.7464	30895
261.75616	30828
261.7659	30805
261.77567	31052
261.78543	31370
261.79517	31518
261.80493	31504
261.81467	31597
261.82443	31838
261.8342	32040
261.84393	31985
261.8537	31857
261.86346	31917
261.8732	31786
261.88297	31791
261.89273	31938
261.90247	31891
261.91223	31782
261.92197	31746
261.93173	31791
261.94147	31977
261.95123	31997
261.961	31907
261.97073	31941
261.9805	31904
261.99023	31670
262	31620
262.00974	31758
262.0195	32001
262.02924	31879
262.039	31969
262.04877	32014
262.0585	32035
262.06827	32003
262.078	31860
262.08777	31856
262.0975	31941
262.10727	31768
262.117	31869
262.12677	31891
262.13651	32104
262.14627	32098
262.15601	32182
262.16574	32317
262.17551	32320
262.18524	32205
262.19501	31944
262.20474	31850
262.21451	31912
262.22424	31836
262.23401	31797
262.24374	32045
262.25348	32253
262.26324	32113
262.27298	31946
262.28275	31912
262.29248	31931
262.30222	31938
262.31198	32122
262.32172	32348
262.33148	32554
262.34122	32447
262.35095	32382
262.36072	32619
262.37045	32713
262.38019	32690
262.38995	32659
262.39969	32672
262.40942	32861
262.41919	32677
262.42892	32508
262.43866	32550
262.44843	32514
262.45816	32569
262.4679	32506
262.47766	32645
262.4874	32810
262.49713	33059
262.5069	32879
262.51663	32820
262.52637	32818
262.5361	33079
262.54587	33129
262.5556	33288
262.56534	33348
262.57507	33486
262.58484	33456
262.59457	33258
262.60431	33247
262.61404	33196
262.62381	33181
262.63354	33352
262.64328	33385
262.65302	33196
262.66275	33130
262.67252	33267
262.68225	33251
262.69199	33351
262.70172	33268
262.71146	33147
262.72122	33257
262.73096	33176
262.74069	33065
262.75043	32881
262.76016	32721
262.7699	33012
262.77963	33007
262.7894	33095
262.79913	33439
262.80887	33338
262.8186	33325
262.82834	33286
262.83807	33111
262.84781	33252
262.85754	33011
262.86728	32790
262.87704	32867
262.88678	32587
262.89651	32618
262.90625	32786
262.91599	32936
262.92572	32914
262.93546	32756
262.94519	32661
262.95493	32672
262.96466	32663
262.9744	32820
262.98413	33130
262.99387	33457
263.0036	33596
263.01334	33478
263.02307	33488
263.03281	33770
263.04254	33642
263.05228	33563
263.06201	33416
263.07175	33508
263.08148	33429
263.09122	33373
263.10095	33279
263.11069	33163
263.12042	33156
263.13016	33212
263.13989	33488
263.14963	33647
263.15936	33692
263.1691	33541
263.17883	33591
263.18857	33642
263.1983	33784
263.20804	33978
263.21774	34023
263.22748	34219
263.23721	34258
263.24695	34300
263.25668	34221
263.26642	34330
263.27615	34194
263.28589	34167
263.29562	34195
263.30533	34063
263.31506	34062
263.3248	34234
263.33453	34045
263.34427	34200
263.354	34143
263.36371	33926
263.37344	34061
263.38318	33874
263.39291	33942
263.40265	33839
263.41235	33837
263.42209	34126
263.43182	34120
263.44156	34385
263.45129	34520
263.461	34615
263.47073	34848
263.48047	34504
263.4902	34545
263.49991	34435
263.50964	34477
263.51938	34573
263.52911	34550
263.53882	34562
263.54855	34556
263.55829	34561
263.56802	34661
263.57773	34516
263.58746	34552
263.5972	34434
263.6069	34368
263.61664	34451
263.62637	34411
263.63611	34459
263.64581	34172
263.65555	34133
263.66528	34022
263.67499	33947
263.68472	34278
263.69446	34487
263.70416	34484
263.7139	34573
263.7236	34433
263.73334	34258
263.74307	34386
263.75278	34398
263.76251	34738
263.77225	35132
263.78195	35116
263.79169	35195
263.80139	35062
263.81113	35214
263.82086	35100
263.83057	35200
263.8403	35279
263.85001	35464
263.85974	35430
263.86945	35127
263.87918	35256
263.88889	35108
263.89862	35159
263.90836	35095
263.91806	35137
263.9278	34878
263.9375	34881
263.94724	34847
263.95694	35042
263.96667	34894
263.97638	34810
263.98611	34993
263.99582	35313
264.00555	35324
264.01526	35340
264.02499	35147
264.0347	35217
264.0444	35226
264.05414	35192
264.06384	35100
264.07358	35214
264.08328	35194
264.09302	34913
264.10272	34784
264.11246	35043
264.12216	35082
264.13187	35134
264.1416	35211
264.15131	35225
264.16104	35239
264.17075	34928
264.18045	34812
264.19019	34746
264.19989	34894
264.20963	35193
264.21933	35229
264.22903	35342
264.23877	35239
264.24847	35107
264.25818	34902
264.26791	35141
264.27762	34821
264.28732	35120
264.29706	35246
264.30676	35296
264.31647	35258
264.3262	35056
264.33591	35308
264.34561	35223
264.35535	35431
264.36505	35393
264.37476	35547
264.38446	35600
264.3942	35401
264.4039	35380
264.4136	35414
264.42331	35413
264.43304	35774
264.44275	35716
264.45245	35723
264.46216	35986
264.47189	36115
264.4816	36042
264.4913	36055
264.50101	35944
264.51071	36143
264.52045	36030
264.53015	35884
264.53986	36160
264.54956	36167
264.55927	35969
264.569	35738
264.5787	35635
264.58841	35376
264.59811	35730
264.60782	35955
264.61752	36030
264.62726	36084
264.63696	35778
264.64667	35978
264.65637	36070
264.66608	36064
264.67578	36113
264.68549	36052
264.69519	36191
264.70493	36090
264.71463	36168
264.72433	35897
264.73404	36065
264.74374	36040
264.75345	36127
264.76315	36011
264.77286	36336
264.78256	36322
264.79227	36448
264.80197	36256
264.81168	36446
264.82138	36165
264.83109	35858
264.84079	35750
264.85049	35605
264.8602	35589
264.8699	35609
264.87964	35588
264.88934	35751
264.89905	35806
264.90872	35743
264.91843	35589
264.92813	35577
264.93784	35580
264.94754	35708
264.95724	35960
264.96695	36358
264.97665	36197
264.98636	36026
264.99606	36072
265.00577	36146
265.01547	36123
265.02518	36418
265.03488	36442
265.04459	36448
265.05429	36504
265.064	36101
265.0737	36127
265.08337	35941
265.09308	35803
265.10278	36099
265.11249	36210
265.12219	36459
265.1319	36701
265.1416	36709
265.15131	36640
265.16098	36549
265.17068	36453
265.18039	36723
265.19009	36844
265.1998	36933
265.2095	37292
265.21918	36955
265.22888	36910
265.23859	36926
265.24829	36787
265.258	36929
265.26767	36917
265.27737	37204
265.28708	37104
265.29678	37057
265.30649	36893
265.31616	36645
265.32587	36840
265.33557	36953
265.34528	36968
265.35495	36671
265.36465	36756
265.37436	36601
265.38406	36760
265.39374	36672
265.40344	36933
265.41315	36810
265.42282	36984
265.43253	37224
265.44223	37148
265.4519	37129
265.46161	37110
265.47131	36981
265.48102	36734
265.49069	36588
265.5004	36476
265.5101	36143
265.51978	36107
265.52948	36142
265.53915	35981
265.54886	36237
265.55856	36146
265.56824	36513
265.57794	36069
265.58765	36202
265.59732	36222
265.60703	36277
265.6167	36581
265.6264	36937
265.63611	37113
265.64578	37334
265.65549	37091
265.66516	37043
265.67487	37150
265.68454	37297
265.69424	37093
265.70395	37251
265.71362	37292
265.72333	37031
265.733	36999
265.74271	36668
265.75238	36446
265.76208	36554
265.77176	36759
265.78146	37217
265.79114	37474
265.80084	37463
265.81052	37207
265.82022	37173
265.8299	37308
265.8396	37435
265.84927	37701
265.85898	38081
265.86865	37889
265.87836	37956
265.88803	38071
265.89774	37920
265.90741	38003
265.91708	37863
265.92679	37993
265.93646	38034
265.94617	37900
265.95584	37960
265.96552	37758
265.97522	37678
265.98489	37781
265.9946	37667
266.00427	37594
266.01395	37559
266.02365	37695
266.03333	37531
266.04303	37441
266.0527	37700
266.06238	37731
266.07208	37988
266.08176	38221
266.09143	38342
266.10114	38359
266.11081	38340
266.12048	38308
266.13019	38129
266.13986	38068
266.14954	37997
266.15921	37807
266.16891	38120
266.17859	37958
266.18826	38103
266.19797	37976
266.20764	38192
266.21732	37963
266.22699	37712
266.23669	37484
266.24637	37686
266.25604	37669
266.26572	37571
266.27542	37789
266.2851	37565
266.29477	37495
266.30444	37450
266.31412	37183
266.32382	37415
266.3335	37827
266.34317	37784
266.35284	37819
266.36252	37520
266.37222	37561
266.3819	37497
266.39157	37726
266.40125	37802
266.41092	38056
266.42059	38315
266.4303	38066
266.43997	38207
266.44965	38421
266.45932	38342
266.46899	38175
266.47867	38292
266.48834	38347
266.49802	38084
266.50772	38310
266.5174	37993
266.52707	38346
266.53674	37953
266.54642	37982
266.55609	37909
266.56577	37793
266.57544	37973
266.58511	38018
266.59479	37916
266.60446	37996
266.61414	38093
266.62381	38236
266.63348	38608
266.64316	38624
266.65283	38439
266.66251	38521
266.67218	38615
266.68185	38530
266.69153	38151
266.7012	38195
266.71088	38116
266.72055	38568
266.73022	38236
266.7399	38129
266.74957	38108
266.75925	38368
266.76892	38560
266.77859	38501
266.78827	38702
266.79794	38651
266.80762	38449
266.81729	38274
266.82697	38203
266.83664	38364
266.84631	38500
266.85599	38641
266.86566	38401
266.87531	38680
266.88498	38469
266.89465	38425
266.90433	38474
266.914	38469
266.92368	38506
266.93335	38688
266.94302	38751
266.95267	38586
266.96234	38843
266.97202	38560
266.98169	38818
266.99136	39019
267.00104	39140
267.01068	39055
267.02036	39125
267.03003	38997
267.0397	38775
267.04938	38940
267.05902	39220
267.0687	39310
267.07837	39402
267.08804	39472
267.09772	40051
267.10736	39745
267.11703	40136
267.12671	39719
267.13638	39805
267.14603	39770
267.1557	39834
267.16537	39761
267.17502	40024
267.18469	39936
267.19437	39874
267.20404	39641
267.21368	39535
267.22336	39725
267.23303	39691
267.24268	39838
267.25235	40125
267.26202	40031
267.27167	39776
267.28134	40010
267.29102	39833
267.30066	39932
267.31033	40179
267.32001	39923
267.32965	40078
267.33932	39921
267.349	40090
267.35864	39796
267.36832	39969
267.37796	39974
267.38763	40110
267.39731	40019
267.40695	40011
267.41663	40284
267.42627	39981
267.43594	40375
267.44562	40049
267.45526	39951
267.46494	39725
267.47458	39716
267.48425	39414
267.4939	39526
267.50357	39538
267.51321	39440
267.52289	40052
267.53253	39747
267.54221	39591
267.55185	39716
267.56152	39743
267.57117	39694
267.58084	40040
267.59048	40059
267.60016	40401
267.6098	40540
267.61948	40317
267.62912	40330
267.63879	40658
267.64844	40412
267.65811	40562
267.66776	40586
267.67743	40557
267.68707	40491
267.69672	40536
267.70639	40029
267.71603	40221
267.72571	40291
267.73535	40093
267.74503	40440
267.75467	40580
267.76431	40881
267.77399	40803
267.78363	40850
267.79327	40830
267.80295	40886
267.81259	41291
267.82227	41124
267.83191	41426
267.84155	41490
267.85123	41308
267.86087	41284
267.87051	41112
267.88019	41465
267.88983	41133
267.89948	41206
267.90912	41096
267.91879	41463
267.92844	41198
267.93808	41133
267.94775	41292
267.9574	41071
267.96704	41346
267.97668	41070
267.98636	41083
267.996	40907
268.00565	40999
268.01529	40811
268.02496	41042
268.03461	40923
268.04425	41064
268.05389	41171
268.06357	41262
268.07321	41392
268.08286	41275
268.0925	40953
268.10214	41201
268.11182	40759
268.12146	40991
268.1311	40588
268.14075	40647
268.15039	40422
268.16003	40511
268.16971	40266
268.17935	40474
268.189	40384
268.19864	40156
268.20828	40441
268.21793	40127
268.22757	40197
268.23724	40193
268.24689	40645
268.25653	41145
268.26617	40856
268.27582	41124
268.28546	40923
268.2951	40926
268.30475	41182
268.31439	40757
268.32404	41035
268.33368	40976
268.34332	41168
268.353	40648
268.36264	40674
268.37228	40397
268.38193	40646
268.39157	40460
268.40121	40666
268.41086	40978
268.4205	41109
268.43015	41079
268.43979	41051
268.44943	40766
268.45908	41036
268.46872	41064
268.47836	41375
268.48801	41378
268.49765	41655
268.50729	41420
268.51694	41572
268.52655	41285
268.53619	41519
268.54584	41460
268.55548	41533
268.56512	41389
268.57477	41545
268.58441	41442
268.59406	41243
268.6037	41480
268.61334	41426
268.62299	41219
268.63263	41195
268.64224	41320
268.65189	41040
268.66153	41144
268.67117	41219
268.68082	41028
268.69046	41401
268.7001	41497
268.70972	41700
268.71936	41393
268.729	41682
268.73865	41589
268.74829	41811
268.75793	41628
268.76755	41675
268.77719	41624
268.78683	41732
268.79648	41754
268.80612	41633
268.81573	42010
268.82538	41802
268.83502	41626
268.84467	41727
268.85428	41722
268.86392	41499
268.87357	41548
268.88321	41571
268.89282	41363
268.90247	41353
268.91211	41028
268.92175	41441
268.93137	41161
268.94101	41228
268.95065	41304
268.96027	41432
268.96991	41434
268.97955	41322
268.98917	41301
268.99881	41065
269.00845	41260
269.01807	41410
269.02771	41429
269.03735	41682
269.04697	42072
269.05661	41707
269.06625	41850
269.07587	42041
269.08551	41975
269.09515	41990
269.10477	42011
269.11441	42178
269.12402	41861
269.13367	41976
269.14331	41971
269.15292	42089
269.16257	41666
269.17218	41878
269.18182	41439
269.19144	41794
269.20108	41782
269.21072	41697
269.22034	41792
269.22998	41871
269.23959	41925
269.24924	42061
269.25885	41914
269.26849	42280
269.27811	42157
269.28775	42026
269.29736	42076
269.30701	41971
269.31662	42082
269.32626	41919
269.33588	41992
269.34552	41782
269.35513	41643
269.36478	41626
269.37439	41520
269.384	41445
269.39365	41568
269.40326	41583
269.4129	41866
269.42252	41391
269.43216	41287
269.44177	41350
269.45139	41094
269.46103	41496
269.47064	41426
269.48029	41164
269.4899	41402
269.49951	41412
269.50916	41456
269.51877	41368
269.52841	41107
269.53802	41364
269.54764	41497
269.55728	41212
269.56689	41603
269.57651	41342
269.58615	41308
269.59576	41573
269.60538	41432
269.61502	41646
269.62463	41807
269.63425	41715
269.64386	41735
269.6535	41759
269.66312	41658
269.67273	41831
269.68237	41880
269.69199	41948
269.7016	42014
269.71121	41996
269.72086	42243
269.73047	42146
269.74008	42334
269.74969	42120
269.75934	42457
269.76895	42550
269.77856	42261
269.78818	42534
269.79779	42533
269.80743	42570
269.81705	42440
269.82666	42496
269.83627	42292
269.84589	42361
269.85553	42431
269.86514	42476
269.87476	42617
269.88437	42435
269.89398	42400
269.90359	42495
269.91321	42268
269.92285	42545
269.93246	42410
269.94208	42708
269.95169	42371
269.9613	42395
269.97092	42372
269.98053	42476
269.99014	42376
269.99976	42265
270.00937	42265
270.01901	42261
270.02863	42209
270.03824	42079
270.04785	42389
270.05746	42171
270.06708	41970
270.07669	41948
270.0863	41955
270.09592	41721
270.10553	42001
270.11514	41587
270.12476	41904
270.13437	41903
270.14398	41973
270.15359	41798
270.16321	41924
270.17282	41764
270.18243	42154
270.19205	41859
270.20166	42139
270.21127	42358
270.22089	42166
270.2305	42691
270.24011	42754
270.24973	42606
270.25934	42744
270.26892	43020
270.27853	42978
270.28815	42847
270.29776	42471
270.30737	42577
270.31699	42773
270.3266	42661
270.33621	42520
270.34583	42679
270.35544	42728
270.36502	42635
270.37463	42955
270.38425	43110
270.39386	43268
270.40347	43251
270.41309	43096
270.4227	43429
270.43228	43471
270.44189	43773
270.45151	43705
270.46112	43895
270.47073	44013
270.48032	43606
270.48993	43505
270.49954	43634
270.50916	43534
270.51877	43762
270.52835	43460
270.53796	43419
270.54758	43798
270.55719	43641
270.56677	43675
270.57639	43685
270.586	43952
270.59561	43798
270.60519	43453
270.61481	43508
270.62442	43443
270.634	43122
270.64362	43074
270.65323	43245
270.66281	43477
270.67242	43398
270.68204	43464
270.69165	43615
270.70123	43780
270.71085	43361
270.72046	43882
270.73004	43253
270.73965	43600
270.74924	43178
270.75885	43344
270.76846	43193
270.77805	43120
270.78766	43142
270.79727	43197
270.80685	42852
270.81647	43140
270.82605	42944
270.83566	43031
270.84528	43108
270.85486	43124
270.86447	43351
270.87405	43652
270.88367	43667
270.89325	43713
270.90286	43602
270.91245	43805
270.92206	43838
270.93164	43849
270.94125	43735
270.95087	43854
270.96045	43697
270.97006	43705
270.97964	43464
270.98926	43125
270.99884	43221
271.00845	43484
271.01804	43651
271.02762	43615
271.03723	43693
271.04681	43961
271.05643	44083
271.06601	43897
271.07562	44215
271.08521	44011
271.09482	44204
271.1044	44516
271.11398	44532
271.1236	44359
271.13318	44735
271.14279	44512
271.15237	44671
271.16196	44679
271.17157	44391
271.18115	44565
271.19077	44666
271.20035	44416
271.20993	44506
271.21954	44101
271.22913	44615
271.23871	44644
271.24832	44254
271.2579	44529
271.26749	44379
271.2771	44333
271.28668	44348
271.29626	44673
271.30588	44698
271.31546	44712
271.32504	44636
271.33463	44833
271.34424	45102
271.35382	45059
271.3634	44834
271.37302	44963
271.3826	44914
271.39218	45020
271.40176	45070
271.41138	44879
271.42096	44779
271.43054	45056
271.44012	45163
271.44971	44829
271.45932	45002
271.4689	44943
271.47849	44628
271.48807	44872
271.49765	44612
271.50726	44833
271.51685	44661
271.52643	44948
271.53601	44691
271.54559	44789
271.55518	44733
271.56479	44640
271.57437	44755
271.58395	44613
271.59354	44908
271.60312	44547
271.6127	44805
271.62228	44714
271.63187	44697
271.64148	44695
271.65106	44917
271.66064	44715
271.67023	44907
271.67981	44842
271.68939	45094
271.69897	45145
271.70856	45087
271.71814	45074
271.72772	45113
271.7373	44819
271.74689	45063
271.75647	44797
271.76605	44903
271.77563	44990
271.78522	44407
271.7948	44768
271.80438	44308
271.81396	44680
271.82355	44731
271.83313	44621
271.84271	44722
271.85229	44856
271.86188	44712
271.87146	44616
271.88104	43978
271.89063	42535
271.90021	39876
